startImage,midImage,endImage,AB,PracticeTrialsLoop.thisRepN,PracticeTrialsLoop.thisTrialN,PracticeTrialsLoop.thisN,PracticeTrialsLoop.thisIndex,TestTrialsLoop.thisRepN,TestTrialsLoop.thisTrialN,TestTrialsLoop.thisN,TestTrialsLoop.thisIndex,WelcomeText.started,WelcomeText.stopped,DepressionQuestionnaire.index,DepressionQuestionnaire.itemText,DepressionQuestionnaire.type,DepressionQuestionnaire.Scoring,DepressionQuestionnaire.response,DepressionQuestionnaire.rt,button.started,button.stopped,button.numClicks,button.timesOn,button.timesOff,instructionsText.started,instructionsText.stopped,nextScreen.keys,nextScreen.rt,nextScreen.started,nextScreen.stopped,stimulusInterval,hasPeriphery.started,hasPeriphery.stopped,key_resp.keys,key_resp.started,key_resp.stopped,noPeriphery.started,noPeriphery.stopped,final.started,final.stopped,blank_screen.started,blank_screen.stopped,text.started,text.stopped,key_resp.rt,participant,session,date,expName,psychopyVersion,frameRate,
,,,,,,,,,,,,14.499152999998842,None,Sadness,Sadness,choice,"0,1,2,3",None,None,,,,,,,,,,,,,,,,,,,,,,,,,,,,001,2021_Jul_29_1238,UniformityIllusion,2021.1.4,None,
,,,,,,,,,,,,,,Pessimism,Pessimism,choice,"0,1,2,3",None,None,,,,,,,,,,,,,,,,,,,,,,,,,,,,001,2021_Jul_29_1238,UniformityIllusion,2021.1.4,None,
,,,,,,,,,,,,,,,,,,,,15.579269699999713,None,1,[1.1591508999990765],[1.159156300000177],16.68599499999982,None,space,0.9878143999994791,16.68599499999982,None,,,,,,,,,,,,,,,,,001,2021_Jul_29_1238,UniformityIllusion,2021.1.4,None,
C:\Users\hesselmann\Desktop\PsychoPyUniformityIllusion\UniformityIllusionPsychoPy\Pics\3start.png,C:\Users\hesselmann\Desktop\PsychoPyUniformityIllusion\UniformityIllusionPsychoPy\Pics\3a.png,C:\Users\hesselmann\Desktop\PsychoPyUniformityIllusion\UniformityIllusionPsychoPy\Pics\3a.png,a,0,0,0,4,,,,,,,,,,,,,,,,,,,,,,,,2,18.02210070000001,28.167596199999025,None,18.02210070000001,None,18.02210070000001,28.167596199999025,21.63335089999964,None,27.84713600000032,28.167596199999025,18.02210070000001,None,,,001,2021_Jul_29_1238,UniformityIllusion,2021.1.4,None,
C:\Users\hesselmann\Desktop\PsychoPyUniformityIllusion\UniformityIllusionPsychoPy\Pics\1start.png,C:\Users\hesselmann\Desktop\PsychoPyUniformityIllusion\UniformityIllusionPsychoPy\Pics\1a.png,C:\Users\hesselmann\Desktop\PsychoPyUniformityIllusion\UniformityIllusionPsychoPy\Pics\1b.png,b,0,1,1,1,,,,,,,,,,,,,,,,,,,,,,,,2,30.26655329999994,None,space,30.26655329999994,None,30.26655329999994,None,34.608702800000174,None,38.076866899999004,38.61323889999949,30.26655329999994,None,8.83323990000099,,001,2021_Jul_29_1238,UniformityIllusion,2021.1.4,None,
C:\Users\hesselmann\Desktop\PsychoPyUniformityIllusion\UniformityIllusionPsychoPy\Pics\3start.png,C:\Users\hesselmann\Desktop\PsychoPyUniformityIllusion\UniformityIllusionPsychoPy\Pics\3a.png,C:\Users\hesselmann\Desktop\PsychoPyUniformityIllusion\UniformityIllusionPsychoPy\Pics\3b.png,b,0,2,2,5,,,,,,,,,,,,,,,,,,,,,,,,3,39.59906029999911,None,space,39.59906029999911,None,39.59906029999911,None,45.34103506666567,None,45.324368399999,None,39.59906029999911,None,5.7412507999997615,,001,2021_Jul_29_1238,UniformityIllusion,2021.1.4,None,
C:\Users\hesselmann\Desktop\PsychoPyUniformityIllusion\UniformityIllusionPsychoPy\Pics\2start.png,C:\Users\hesselmann\Desktop\PsychoPyUniformityIllusion\UniformityIllusionPsychoPy\Pics\2a.png,C:\Users\hesselmann\Desktop\PsychoPyUniformityIllusion\UniformityIllusionPsychoPy\Pics\2a.png,a,0,3,3,2,,,,,,,,,,,,,,,,,,,,,,,,2,45.77013999999872,None,None,45.77013999999872,None,45.77013999999872,None,49.34249400000044,None,54.10726579999937,54.61003789999995,45.77013999999872,None,,,001,2021_Jul_29_1238,UniformityIllusion,2021.1.4,None,
C:\Users\hesselmann\Desktop\PsychoPyUniformityIllusion\UniformityIllusionPsychoPy\Pics\2start.png,C:\Users\hesselmann\Desktop\PsychoPyUniformityIllusion\UniformityIllusionPsychoPy\Pics\2a.png,C:\Users\hesselmann\Desktop\PsychoPyUniformityIllusion\UniformityIllusionPsychoPy\Pics\2b.png,b,0,4,4,3,,,,,,,,,,,,,,,,,,,,,,,,3,55.397171666666566,None,None,55.397171666666566,None,55.397171666666566,None,None,None,None,None,55.397171666666566,None,,,001,2021_Jul_29_1238,UniformityIllusion,2021.1.4,None,
C:\Users\hesselmann\Desktop\PsychoPyUniformityIllusion\UniformityIllusionPsychoPy\Pics\1start.png,C:\Users\hesselmann\Desktop\PsychoPyUniformityIllusion\UniformityIllusionPsychoPy\Pics\1a.png,C:\Users\hesselmann\Desktop\PsychoPyUniformityIllusion\UniformityIllusionPsychoPy\Pics\1a.png,a,0,5,5,0,,,,,,,,,,,,,,,,,,,,,,,,3,55.849882999998954,65.95751389999896,None,55.849882999998954,None,55.849882999998954,65.95751389999896,62.803433799999766,None,64.48270830000001,65.05072370000016,55.849882999998954,None,,,001,2021_Jul_29_1238,UniformityIllusion,2021.1.4,None,
C:\Users\hesselmann\Desktop\PsychoPyUniformityIllusion\UniformityIllusionPsychoPy\Pics\12start.png,C:\Users\hesselmann\Desktop\PsychoPyUniformityIllusion\UniformityIllusionPsychoPy\Pics\12a.png,C:\Users\hesselmann\Desktop\PsychoPyUniformityIllusion\UniformityIllusionPsychoPy\Pics\12a.png,None,,,,,0,0,0,16,67.79927820000012,None,,,,,,,,,,,,,,,,,,2,70.11789169999975,None,space,70.11789169999975,None,70.11789169999975,None,73.78651580000042,None,75.1583671999997,75.61262979999992,70.11789169999975,None,5.777241100000538,,001,2021_Jul_29_1238,UniformityIllusion,2021.1.4,None,
C:\Users\hesselmann\Desktop\PsychoPyUniformityIllusion\UniformityIllusionPsychoPy\Pics\7start.png,C:\Users\hesselmann\Desktop\PsychoPyUniformityIllusion\UniformityIllusionPsychoPy\Pics\7a.png,C:\Users\hesselmann\Desktop\PsychoPyUniformityIllusion\UniformityIllusionPsychoPy\Pics\7b.png,None,,,,,0,1,1,7,,,,,,,,,,,,,,,,,,,,3,76.561233299999,None,space,76.561233299999,None,76.561233299999,None,None,None,None,None,76.561233299999,None,2.590182800000548,,001,2021_Jul_29_1238,UniformityIllusion,2021.1.4,None,
C:\Users\hesselmann\Desktop\PsychoPyUniformityIllusion\UniformityIllusionPsychoPy\Pics\6start.png,C:\Users\hesselmann\Desktop\PsychoPyUniformityIllusion\UniformityIllusionPsychoPy\Pics\6a.png,C:\Users\hesselmann\Desktop\PsychoPyUniformityIllusion\UniformityIllusionPsychoPy\Pics\6b.png,b,,,,,0,2,2,5,,,,,,,,,,,,,,,,,,,,3,79.69387129999996,None,space,79.69387129999996,None,79.69387129999996,None,None,None,None,None,79.69387129999996,None,4.866015300000072,,001,2021_Jul_29_1238,UniformityIllusion,2021.1.4,None,
C:\Users\hesselmann\Desktop\PsychoPyUniformityIllusion\UniformityIllusionPsychoPy\Pics\11start.png,C:\Users\hesselmann\Desktop\PsychoPyUniformityIllusion\UniformityIllusionPsychoPy\Pics\11a.png,C:\Users\hesselmann\Desktop\PsychoPyUniformityIllusion\UniformityIllusionPsychoPy\Pics\11b.png,None,,,,,0,3,3,15,,,,,,,,,,,,,,,,,,,,3,85.05338680000023,None,space,85.05338680000023,None,85.05338680000023,None,None,None,None,None,85.05338680000023,None,0.5226091000004089,,001,2021_Jul_29_1238,UniformityIllusion,2021.1.4,None,
C:\Users\hesselmann\Desktop\PsychoPyUniformityIllusion\UniformityIllusionPsychoPy\Pics\9start.png,C:\Users\hesselmann\Desktop\PsychoPyUniformityIllusion\UniformityIllusionPsychoPy\Pics\9a.png,C:\Users\hesselmann\Desktop\PsychoPyUniformityIllusion\UniformityIllusionPsychoPy\Pics\9a.png,None,,,,,0,4,4,10,,,,,,,,,,,,,,,,,,,,2,86.08034810000026,96.34704989999955,space,86.08034810000026,None,86.08034810000026,96.34704989999955,89.91661550000026,None,94.99419229999876,95.5392068000001,86.08034810000026,None,11.800781100000677,,001,2021_Jul_29_1238,UniformityIllusion,2021.1.4,None,
C:\Users\hesselmann\Desktop\PsychoPyUniformityIllusion\UniformityIllusionPsychoPy\Pics\12start.png,C:\Users\hesselmann\Desktop\PsychoPyUniformityIllusion\UniformityIllusionPsychoPy\Pics\12a.png,C:\Users\hesselmann\Desktop\PsychoPyUniformityIllusion\UniformityIllusionPsychoPy\Pics\12b.png,None,,,,,0,5,5,17,,,,,,,,,,,,,,,,,,,,2,98.2139017999998,None,space,98.2139017999998,None,98.2139017999998,None,None,None,None,None,98.2139017999998,None,0.5072789000005287,,001,2021_Jul_29_1238,UniformityIllusion,2021.1.4,None,
C:\Users\hesselmann\Desktop\PsychoPyUniformityIllusion\UniformityIllusionPsychoPy\Pics\13start.png,C:\Users\hesselmann\Desktop\PsychoPyUniformityIllusion\UniformityIllusionPsychoPy\Pics\13a.png,C:\Users\hesselmann\Desktop\PsychoPyUniformityIllusion\UniformityIllusionPsychoPy\Pics\13b.png,None,,,,,0,6,6,19,,,,,,,,,,,,,,,,,,,,3,99.29777110000032,None,space,99.29777110000032,None,99.29777110000032,None,None,None,None,None,99.29777110000032,None,0.6957424000011088,,001,2021_Jul_29_1238,UniformityIllusion,2021.1.4,None,
C:\Users\hesselmann\Desktop\PsychoPyUniformityIllusion\UniformityIllusionPsychoPy\Pics\8start.png,C:\Users\hesselmann\Desktop\PsychoPyUniformityIllusion\UniformityIllusionPsychoPy\Pics\8a.png,C:\Users\hesselmann\Desktop\PsychoPyUniformityIllusion\UniformityIllusionPsychoPy\Pics\8b.png,None,,,,,0,7,7,9,,,,,,,,,,,,,,,,,,,,2,100.36654950000047,None,space,100.36654950000047,None,100.36654950000047,None,None,None,None,None,100.36654950000047,None,1.8110928000005515,,001,2021_Jul_29_1238,UniformityIllusion,2021.1.4,None,
C:\Users\hesselmann\Desktop\PsychoPyUniformityIllusion\UniformityIllusionPsychoPy\Pics\5start.png,C:\Users\hesselmann\Desktop\PsychoPyUniformityIllusion\UniformityIllusionPsychoPy\Pics\5a.png,C:\Users\hesselmann\Desktop\PsychoPyUniformityIllusion\UniformityIllusionPsychoPy\Pics\5a.png,a,,,,,0,8,8,2,,,,,,,,,,,,,,,,,,,,2,102.73443969999971,None,None,102.73443969999971,None,102.73443969999971,None,None,None,None,None,102.73443969999971,None,,,001,2021_Jul_29_1238,UniformityIllusion,2021.1.4,None,
C:\Users\hesselmann\Desktop\PsychoPyUniformityIllusion\UniformityIllusionPsychoPy\Pics\8start.png,C:\Users\hesselmann\Desktop\PsychoPyUniformityIllusion\UniformityIllusionPsychoPy\Pics\8a.png,C:\Users\hesselmann\Desktop\PsychoPyUniformityIllusion\UniformityIllusionPsychoPy\Pics\8a.png,None,,,,,0,9,9,8,,,,,,,,,,,,,,,,,,,,3,104.39446759999991,None,None,104.39446759999991,None,104.39446759999991,None,None,None,None,None,104.39446759999991,None,,,001,2021_Jul_29_1238,UniformityIllusion,2021.1.4,None,
,,,,,,,,,,,,,,,,,,,,,,,,,,,,,,,2,,,,,,,,,,,,,,,,,,,,,
