startImage,midImage,endImage,AB,PracticeTrialsLoop.thisRepN,PracticeTrialsLoop.thisTrialN,PracticeTrialsLoop.thisN,PracticeTrialsLoop.thisIndex,TestTrialsLoop.thisRepN,TestTrialsLoop.thisTrialN,TestTrialsLoop.thisN,TestTrialsLoop.thisIndex,WelcomeText.started,WelcomeText.stopped,DepressionQuestionnaire.index,DepressionQuestionnaire.itemText,DepressionQuestionnaire.type,DepressionQuestionnaire.Scoring,DepressionQuestionnaire.response,DepressionQuestionnaire.rt,button.started,button.stopped,button.numClicks,button.timesOn,button.timesOff,instructionsText.started,instructionsText.stopped,nextScreen.keys,nextScreen.rt,nextScreen.started,nextScreen.stopped,stimulusInterval,hasPeriphery.started,hasPeriphery.stopped,key_resp.keys,key_resp.started,key_resp.stopped,noPeriphery.started,noPeriphery.stopped,final.started,final.stopped,blank_screen.started,blank_screen.stopped,text.started,text.stopped,participant,session,date,expName,psychopyVersion,frameRate,
,,,,,,,,,,,,15.510555200000454,None,Sadness,Sadness,choice,"0,1,2,3",None,None,,,,,,,,,,,,,,,,,,,,,,,,,,,001,2021_Jul_29_1311,UniformityIllusion,2021.1.4,None,
,,,,,,,,,,,,,,Pessimism,Pessimism,choice,"0,1,2,3",None,None,,,,,,,,,,,,,,,,,,,,,,,,,,,001,2021_Jul_29_1311,UniformityIllusion,2021.1.4,None,
,,,,,,,,,,,,,,,,,,,,16.593587000001207,None,1,[0.9600817999998981],[0.9600864000003639],17.499795300000187,None,space,0.2917360000010376,17.499795300000187,None,,,,,,,,,,,,,,,,001,2021_Jul_29_1311,UniformityIllusion,2021.1.4,None,
C:\Users\hesselmann\Desktop\PsychoPyUniformityIllusion\UniformityIllusionPsychoPy\Pics\2start.png,C:\Users\hesselmann\Desktop\PsychoPyUniformityIllusion\UniformityIllusionPsychoPy\Pics\2a.png,C:\Users\hesselmann\Desktop\PsychoPyUniformityIllusion\UniformityIllusionPsychoPy\Pics\2a.png,a,0,0,0,2,,,,,,,,,,,,,,,,,,,,,,,,2,18.197829900000215,None,None,18.197829900000215,None,18.197829900000215,None,None,None,None,None,18.197829900000215,None,,001,2021_Jul_29_1311,UniformityIllusion,2021.1.4,None,
C:\Users\hesselmann\Desktop\PsychoPyUniformityIllusion\UniformityIllusionPsychoPy\Pics\3start.png,C:\Users\hesselmann\Desktop\PsychoPyUniformityIllusion\UniformityIllusionPsychoPy\Pics\3a.png,C:\Users\hesselmann\Desktop\PsychoPyUniformityIllusion\UniformityIllusionPsychoPy\Pics\3b.png,b,0,1,1,5,,,,,,,,,,,,,,,,,,,,,,,,2,18.62695480000002,None,None,18.62695480000002,None,18.62695480000002,None,None,None,None,None,18.62695480000002,None,,001,2021_Jul_29_1311,UniformityIllusion,2021.1.4,None,
C:\Users\hesselmann\Desktop\PsychoPyUniformityIllusion\UniformityIllusionPsychoPy\Pics\1start.png,C:\Users\hesselmann\Desktop\PsychoPyUniformityIllusion\UniformityIllusionPsychoPy\Pics\1a.png,C:\Users\hesselmann\Desktop\PsychoPyUniformityIllusion\UniformityIllusionPsychoPy\Pics\1a.png,a,0,2,2,0,,,,,,,,,,,,,,,,,,,,,,,,2,19.09223960000054,None,None,19.09223960000054,None,19.09223960000054,None,None,None,None,None,19.09223960000054,None,,001,2021_Jul_29_1311,UniformityIllusion,2021.1.4,None,
C:\Users\hesselmann\Desktop\PsychoPyUniformityIllusion\UniformityIllusionPsychoPy\Pics\3start.png,C:\Users\hesselmann\Desktop\PsychoPyUniformityIllusion\UniformityIllusionPsychoPy\Pics\3a.png,C:\Users\hesselmann\Desktop\PsychoPyUniformityIllusion\UniformityIllusionPsychoPy\Pics\3a.png,a,0,3,3,4,,,,,,,,,,,,,,,,,,,,,,,,3,19.540204200000517,None,None,19.540204200000517,None,19.540204200000517,None,None,None,None,None,19.540204200000517,None,,001,2021_Jul_29_1311,UniformityIllusion,2021.1.4,None,
C:\Users\hesselmann\Desktop\PsychoPyUniformityIllusion\UniformityIllusionPsychoPy\Pics\1start.png,C:\Users\hesselmann\Desktop\PsychoPyUniformityIllusion\UniformityIllusionPsychoPy\Pics\1a.png,C:\Users\hesselmann\Desktop\PsychoPyUniformityIllusion\UniformityIllusionPsychoPy\Pics\1b.png,b,0,4,4,1,,,,,,,,,,,,,,,,,,,,,,,,2,20.010625099999743,None,None,20.010625099999743,None,20.010625099999743,None,None,None,None,None,20.010625099999743,None,,001,2021_Jul_29_1311,UniformityIllusion,2021.1.4,None,
C:\Users\hesselmann\Desktop\PsychoPyUniformityIllusion\UniformityIllusionPsychoPy\Pics\2start.png,C:\Users\hesselmann\Desktop\PsychoPyUniformityIllusion\UniformityIllusionPsychoPy\Pics\2a.png,C:\Users\hesselmann\Desktop\PsychoPyUniformityIllusion\UniformityIllusionPsychoPy\Pics\2b.png,b,0,5,5,3,,,,,,,,,,,,,,,,,,,,,,,,3,20.434686800001145,None,None,20.434686800001145,None,20.434686800001145,None,None,None,None,None,20.434686800001145,None,,001,2021_Jul_29_1311,UniformityIllusion,2021.1.4,None,
C:\Users\hesselmann\Desktop\PsychoPyUniformityIllusion\UniformityIllusionPsychoPy\Pics\6start.png,C:\Users\hesselmann\Desktop\PsychoPyUniformityIllusion\UniformityIllusionPsychoPy\Pics\6a.png,C:\Users\hesselmann\Desktop\PsychoPyUniformityIllusion\UniformityIllusionPsychoPy\Pics\6a.png,a,,,,,0,0,0,4,20.55327750000106,None,,,,,,,,,,,,,,,,,,2,22.77997940000023,None,None,22.77997940000023,None,22.77997940000023,None,None,None,None,None,22.77997940000023,None,,001,2021_Jul_29_1311,UniformityIllusion,2021.1.4,None,
C:\Users\hesselmann\Desktop\PsychoPyUniformityIllusion\UniformityIllusionPsychoPy\Pics\14start.png,C:\Users\hesselmann\Desktop\PsychoPyUniformityIllusion\UniformityIllusionPsychoPy\Pics\14a.png,C:\Users\hesselmann\Desktop\PsychoPyUniformityIllusion\UniformityIllusionPsychoPy\Pics\14a.png,None,,,,,0,1,1,20,,,,,,,,,,,,,,,,,,,,2,23.129979400000227,None,None,23.129979400000227,None,23.129979400000227,None,None,None,None,None,23.129979400000227,None,,001,2021_Jul_29_1311,UniformityIllusion,2021.1.4,None,
C:\Users\hesselmann\Desktop\PsychoPyUniformityIllusion\UniformityIllusionPsychoPy\Pics\15start.png,C:\Users\hesselmann\Desktop\PsychoPyUniformityIllusion\UniformityIllusionPsychoPy\Pics\15a.png,C:\Users\hesselmann\Desktop\PsychoPyUniformityIllusion\UniformityIllusionPsychoPy\Pics\15b.png,None,,,,,0,2,2,23,,,,,,,,,,,,,,,,,,,,2,23.413312733333562,None,None,23.413312733333562,None,23.413312733333562,None,None,None,None,None,23.413312733333562,None,,001,2021_Jul_29_1311,UniformityIllusion,2021.1.4,None,
C:\Users\hesselmann\Desktop\PsychoPyUniformityIllusion\UniformityIllusionPsychoPy\Pics\4start.png,C:\Users\hesselmann\Desktop\PsychoPyUniformityIllusion\UniformityIllusionPsychoPy\Pics\4a.png,C:\Users\hesselmann\Desktop\PsychoPyUniformityIllusion\UniformityIllusionPsychoPy\Pics\4b.png,b,,,,,0,3,3,1,,,,,,,,,,,,,,,,,,,,2,23.679979400000228,None,None,23.679979400000228,None,23.679979400000228,None,None,None,None,None,23.679979400000228,None,,001,2021_Jul_29_1311,UniformityIllusion,2021.1.4,None,
C:\Users\hesselmann\Desktop\PsychoPyUniformityIllusion\UniformityIllusionPsychoPy\Pics\10start.png,C:\Users\hesselmann\Desktop\PsychoPyUniformityIllusion\UniformityIllusionPsychoPy\Pics\10a.png,C:\Users\hesselmann\Desktop\PsychoPyUniformityIllusion\UniformityIllusionPsychoPy\Pics\10b.png,None,,,,,0,4,4,13,,,,,,,,,,,,,,,,,,,,3,24.046646066666895,None,None,24.046646066666895,None,24.046646066666895,None,None,None,None,None,24.046646066666895,None,,001,2021_Jul_29_1311,UniformityIllusion,2021.1.4,None,
C:\Users\hesselmann\Desktop\PsychoPyUniformityIllusion\UniformityIllusionPsychoPy\Pics\5start.png,C:\Users\hesselmann\Desktop\PsychoPyUniformityIllusion\UniformityIllusionPsychoPy\Pics\5a.png,C:\Users\hesselmann\Desktop\PsychoPyUniformityIllusion\UniformityIllusionPsychoPy\Pics\5a.png,a,,,,,0,5,5,2,,,,,,,,,,,,,,,,,,,,2,24.446646066666894,None,None,24.446646066666894,None,24.446646066666894,None,None,None,None,None,24.446646066666894,None,,001,2021_Jul_29_1311,UniformityIllusion,2021.1.4,None,
C:\Users\hesselmann\Desktop\PsychoPyUniformityIllusion\UniformityIllusionPsychoPy\Pics\13start.png,C:\Users\hesselmann\Desktop\PsychoPyUniformityIllusion\UniformityIllusionPsychoPy\Pics\13a.png,C:\Users\hesselmann\Desktop\PsychoPyUniformityIllusion\UniformityIllusionPsychoPy\Pics\13b.png,None,,,,,0,6,6,19,,,,,,,,,,,,,,,,,,,,3,24.846646066666896,None,None,24.846646066666896,None,24.846646066666896,None,None,None,None,None,24.846646066666896,None,,001,2021_Jul_29_1311,UniformityIllusion,2021.1.4,None,
C:\Users\hesselmann\Desktop\PsychoPyUniformityIllusion\UniformityIllusionPsychoPy\Pics\12start.png,C:\Users\hesselmann\Desktop\PsychoPyUniformityIllusion\UniformityIllusionPsychoPy\Pics\12a.png,C:\Users\hesselmann\Desktop\PsychoPyUniformityIllusion\UniformityIllusionPsychoPy\Pics\12a.png,None,,,,,0,7,7,16,,,,,,,,,,,,,,,,,,,,3,25.179979400000228,None,None,25.179979400000228,None,25.179979400000228,None,None,None,None,None,25.179979400000228,None,,001,2021_Jul_29_1311,UniformityIllusion,2021.1.4,None,
C:\Users\hesselmann\Desktop\PsychoPyUniformityIllusion\UniformityIllusionPsychoPy\Pics\11start.png,C:\Users\hesselmann\Desktop\PsychoPyUniformityIllusion\UniformityIllusionPsychoPy\Pics\11a.png,C:\Users\hesselmann\Desktop\PsychoPyUniformityIllusion\UniformityIllusionPsychoPy\Pics\11a.png,None,,,,,0,8,8,14,,,,,,,,,,,,,,,,,,,,3,25.579979400000227,None,None,25.579979400000227,None,25.579979400000227,None,None,None,None,None,25.579979400000227,None,,001,2021_Jul_29_1311,UniformityIllusion,2021.1.4,None,
C:\Users\hesselmann\Desktop\PsychoPyUniformityIllusion\UniformityIllusionPsychoPy\Pics\12start.png,C:\Users\hesselmann\Desktop\PsychoPyUniformityIllusion\UniformityIllusionPsychoPy\Pics\12a.png,C:\Users\hesselmann\Desktop\PsychoPyUniformityIllusion\UniformityIllusionPsychoPy\Pics\12b.png,None,,,,,0,9,9,17,,,,,,,,,,,,,,,,,,,,3,25.929979400000228,None,None,25.929979400000228,None,25.929979400000228,None,None,None,None,None,25.929979400000228,None,,001,2021_Jul_29_1311,UniformityIllusion,2021.1.4,None,
C:\Users\hesselmann\Desktop\PsychoPyUniformityIllusion\UniformityIllusionPsychoPy\Pics\8start.png,C:\Users\hesselmann\Desktop\PsychoPyUniformityIllusion\UniformityIllusionPsychoPy\Pics\8a.png,C:\Users\hesselmann\Desktop\PsychoPyUniformityIllusion\UniformityIllusionPsychoPy\Pics\8b.png,None,,,,,0,10,10,9,,,,,,,,,,,,,,,,,,,,3,26.22997940000023,None,None,26.22997940000023,None,26.22997940000023,None,None,None,None,None,26.22997940000023,None,,001,2021_Jul_29_1311,UniformityIllusion,2021.1.4,None,
C:\Users\hesselmann\Desktop\PsychoPyUniformityIllusion\UniformityIllusionPsychoPy\Pics\7start.png,C:\Users\hesselmann\Desktop\PsychoPyUniformityIllusion\UniformityIllusionPsychoPy\Pics\7a.png,C:\Users\hesselmann\Desktop\PsychoPyUniformityIllusion\UniformityIllusionPsychoPy\Pics\7a.png,None,,,,,0,11,11,6,,,,,,,,,,,,,,,,,,,,2,26.546646066666895,None,None,26.546646066666895,None,26.546646066666895,None,None,None,None,None,26.546646066666895,None,,001,2021_Jul_29_1311,UniformityIllusion,2021.1.4,None,
C:\Users\hesselmann\Desktop\PsychoPyUniformityIllusion\UniformityIllusionPsychoPy\Pics\9start.png,C:\Users\hesselmann\Desktop\PsychoPyUniformityIllusion\UniformityIllusionPsychoPy\Pics\9a.png,C:\Users\hesselmann\Desktop\PsychoPyUniformityIllusion\UniformityIllusionPsychoPy\Pics\9b.png,None,,,,,0,12,12,11,,,,,,,,,,,,,,,,,,,,3,26.896646066666897,None,None,26.896646066666897,None,26.896646066666897,None,None,None,None,None,26.896646066666897,None,,001,2021_Jul_29_1311,UniformityIllusion,2021.1.4,None,
C:\Users\hesselmann\Desktop\PsychoPyUniformityIllusion\UniformityIllusionPsychoPy\Pics\15start.png,C:\Users\hesselmann\Desktop\PsychoPyUniformityIllusion\UniformityIllusionPsychoPy\Pics\15a.png,C:\Users\hesselmann\Desktop\PsychoPyUniformityIllusion\UniformityIllusionPsychoPy\Pics\15a.png,None,,,,,0,13,13,22,,,,,,,,,,,,,,,,,,,,3,27.179979400000228,None,None,27.179979400000228,None,27.179979400000228,None,None,None,None,None,27.179979400000228,None,,001,2021_Jul_29_1311,UniformityIllusion,2021.1.4,None,
C:\Users\hesselmann\Desktop\PsychoPyUniformityIllusion\UniformityIllusionPsychoPy\Pics\13start.png,C:\Users\hesselmann\Desktop\PsychoPyUniformityIllusion\UniformityIllusionPsychoPy\Pics\13a.png,C:\Users\hesselmann\Desktop\PsychoPyUniformityIllusion\UniformityIllusionPsychoPy\Pics\13a.png,None,,,,,0,14,14,18,,,,,,,,,,,,,,,,,,,,2,27.546646066666895,None,None,27.546646066666895,None,27.546646066666895,None,None,None,None,None,27.546646066666895,None,,001,2021_Jul_29_1311,UniformityIllusion,2021.1.4,None,
C:\Users\hesselmann\Desktop\PsychoPyUniformityIllusion\UniformityIllusionPsychoPy\Pics\11start.png,C:\Users\hesselmann\Desktop\PsychoPyUniformityIllusion\UniformityIllusionPsychoPy\Pics\11a.png,C:\Users\hesselmann\Desktop\PsychoPyUniformityIllusion\UniformityIllusionPsychoPy\Pics\11b.png,None,,,,,0,15,15,15,,,,,,,,,,,,,,,,,,,,2,27.946646066666894,None,None,27.946646066666894,None,27.946646066666894,None,None,None,None,None,27.946646066666894,None,,001,2021_Jul_29_1311,UniformityIllusion,2021.1.4,None,
C:\Users\hesselmann\Desktop\PsychoPyUniformityIllusion\UniformityIllusionPsychoPy\Pics\14start.png,C:\Users\hesselmann\Desktop\PsychoPyUniformityIllusion\UniformityIllusionPsychoPy\Pics\14a.png,C:\Users\hesselmann\Desktop\PsychoPyUniformityIllusion\UniformityIllusionPsychoPy\Pics\14b.png,None,,,,,0,16,16,21,,,,,,,,,,,,,,,,,,,,2,28.27997940000023,None,None,28.27997940000023,None,28.27997940000023,None,None,None,None,None,28.27997940000023,None,,001,2021_Jul_29_1311,UniformityIllusion,2021.1.4,None,
C:\Users\hesselmann\Desktop\PsychoPyUniformityIllusion\UniformityIllusionPsychoPy\Pics\4start.png,C:\Users\hesselmann\Desktop\PsychoPyUniformityIllusion\UniformityIllusionPsychoPy\Pics\4a.png,C:\Users\hesselmann\Desktop\PsychoPyUniformityIllusion\UniformityIllusionPsychoPy\Pics\4a.png,a,,,,,0,17,17,0,,,,,,,,,,,,,,,,,,,,3,28.596646066666896,None,None,28.596646066666896,None,28.596646066666896,None,None,None,None,None,28.596646066666896,None,,001,2021_Jul_29_1311,UniformityIllusion,2021.1.4,None,
C:\Users\hesselmann\Desktop\PsychoPyUniformityIllusion\UniformityIllusionPsychoPy\Pics\9start.png,C:\Users\hesselmann\Desktop\PsychoPyUniformityIllusion\UniformityIllusionPsychoPy\Pics\9a.png,C:\Users\hesselmann\Desktop\PsychoPyUniformityIllusion\UniformityIllusionPsychoPy\Pics\9a.png,None,,,,,0,18,18,10,,,,,,,,,,,,,,,,,,,,3,28.896646066666897,None,None,28.896646066666897,None,28.896646066666897,None,None,None,None,None,28.896646066666897,None,,001,2021_Jul_29_1311,UniformityIllusion,2021.1.4,None,
C:\Users\hesselmann\Desktop\PsychoPyUniformityIllusion\UniformityIllusionPsychoPy\Pics\5start.png,C:\Users\hesselmann\Desktop\PsychoPyUniformityIllusion\UniformityIllusionPsychoPy\Pics\5a.png,C:\Users\hesselmann\Desktop\PsychoPyUniformityIllusion\UniformityIllusionPsychoPy\Pics\5b.png,b,,,,,0,19,19,3,,,,,,,,,,,,,,,,,,,,2,29.246646066666894,None,None,29.246646066666894,None,29.246646066666894,None,None,None,None,None,29.246646066666894,None,,001,2021_Jul_29_1311,UniformityIllusion,2021.1.4,None,
C:\Users\hesselmann\Desktop\PsychoPyUniformityIllusion\UniformityIllusionPsychoPy\Pics\7start.png,C:\Users\hesselmann\Desktop\PsychoPyUniformityIllusion\UniformityIllusionPsychoPy\Pics\7a.png,C:\Users\hesselmann\Desktop\PsychoPyUniformityIllusion\UniformityIllusionPsychoPy\Pics\7b.png,None,,,,,0,20,20,7,,,,,,,,,,,,,,,,,,,,3,29.61331273333356,None,None,29.61331273333356,None,29.61331273333356,None,None,None,None,None,29.61331273333356,None,,001,2021_Jul_29_1311,UniformityIllusion,2021.1.4,None,
C:\Users\hesselmann\Desktop\PsychoPyUniformityIllusion\UniformityIllusionPsychoPy\Pics\8start.png,C:\Users\hesselmann\Desktop\PsychoPyUniformityIllusion\UniformityIllusionPsychoPy\Pics\8a.png,C:\Users\hesselmann\Desktop\PsychoPyUniformityIllusion\UniformityIllusionPsychoPy\Pics\8a.png,None,,,,,0,21,21,8,,,,,,,,,,,,,,,,,,,,3,29.929979400000228,None,None,29.929979400000228,None,29.929979400000228,None,None,None,None,None,29.929979400000228,None,,001,2021_Jul_29_1311,UniformityIllusion,2021.1.4,None,
C:\Users\hesselmann\Desktop\PsychoPyUniformityIllusion\UniformityIllusionPsychoPy\Pics\10start.png,C:\Users\hesselmann\Desktop\PsychoPyUniformityIllusion\UniformityIllusionPsychoPy\Pics\10a.png,C:\Users\hesselmann\Desktop\PsychoPyUniformityIllusion\UniformityIllusionPsychoPy\Pics\10a.png,None,,,,,0,22,22,12,,,,,,,,,,,,,,,,,,,,2,30.296646066666895,None,None,30.296646066666895,None,30.296646066666895,None,None,None,None,None,30.296646066666895,None,,001,2021_Jul_29_1311,UniformityIllusion,2021.1.4,None,
C:\Users\hesselmann\Desktop\PsychoPyUniformityIllusion\UniformityIllusionPsychoPy\Pics\6start.png,C:\Users\hesselmann\Desktop\PsychoPyUniformityIllusion\UniformityIllusionPsychoPy\Pics\6a.png,C:\Users\hesselmann\Desktop\PsychoPyUniformityIllusion\UniformityIllusionPsychoPy\Pics\6b.png,b,,,,,0,23,23,5,,,,,,,,,,,,,,,,,,,,3,30.62997940000023,None,None,30.62997940000023,None,30.62997940000023,None,None,None,None,None,30.62997940000023,None,,001,2021_Jul_29_1311,UniformityIllusion,2021.1.4,None,
