startImage,endImage,AB,PracticeTrialsLoop.thisRepN,PracticeTrialsLoop.thisTrialN,PracticeTrialsLoop.thisN,PracticeTrialsLoop.thisIndex,TestTrialsLoop.thisRepN,TestTrialsLoop.thisTrialN,TestTrialsLoop.thisN,TestTrialsLoop.thisIndex,WelcomeText.started,WelcomeText.stopped,DepressionQuestionnaire.index,DepressionQuestionnaire.itemText,DepressionQuestionnaire.type,DepressionQuestionnaire.Scoring,DepressionQuestionnaire.response,DepressionQuestionnaire.rt,button.started,button.stopped,button.numClicks,button.timesOn,button.timesOff,instructionsText.started,instructionsText.stopped,nextScreen.keys,nextScreen.rt,nextScreen.started,nextScreen.stopped,hasPeriphery.started,hasPeriphery.stopped,key_resp.keys,key_resp.rt,key_resp.started,key_resp.stopped,noPeriphery.started,noPeriphery.stopped,text.started,text.stopped,hasPeriphery_2.started,hasPeriphery_2.stopped,key_resp_2.keys,key_resp_2.started,key_resp_2.stopped,noPeriphery_2.started,noPeriphery_2.stopped,text_2.started,text_2.stopped,participant,session,date,expName,psychopyVersion,frameRate,
,,,,,,,,,,,13.914373399995384,None,Sadness,Sadness,choice,"0,1,2,3",3: I am so sad or unhappy that I can't stand it,3.3412668999953894,,,,,,,,,,,,,,,,,,,,,,,,,,,,,,,,001,2021_Jul_13_1503,UniformityIllusion,2021.1.4,None,
,,,,,,,,,,,,,Pessimism,Pessimism,choice,"0,1,2,3",3: I feel my future is hopeless and will only get worse,2.63005580000754,,,,,,,,,,,,,,,,,,,,,,,,,,,,,,,,001,2021_Jul_13_1503,UniformityIllusion,2021.1.4,None,
,,,,,,,,,,,,,,,,,,,15.99911640000937,None,1,[4.219867000007071],[4.2198747000074945],20.178831800003536,None,space,1.217772000003606,20.178831800003536,None,,,,,,,,,,,,,,,,,,,,,001,2021_Jul_13_1503,UniformityIllusion,2021.1.4,None,
C:\Users\hesselmann\Desktop\PsychoPyUniformityIllusion\UniformityIllusionPsychoPy\Pics\1start.png,C:\Users\hesselmann\Desktop\PsychoPyUniformityIllusion\UniformityIllusionPsychoPy\Pics\1a.png,a,0,0,0,0,,,,,,,,,,,,,,,,,,,,,,,,21.751328700003796,None,space,3.2376328999962425,21.751328700003796,None,21.751328700003796,None,21.751328700003796,None,,,,,,,,,,,001,2021_Jul_13_1503,UniformityIllusion,2021.1.4,None,
C:\Users\hesselmann\Desktop\PsychoPyUniformityIllusion\UniformityIllusionPsychoPy\Pics\1start.png,C:\Users\hesselmann\Desktop\PsychoPyUniformityIllusion\UniformityIllusionPsychoPy\Pics\1b.png,b,0,1,1,1,,,,,,,,,,,,,,,,,,,,,,,,25.49642799999856,None,space,2.805031099996995,25.49642799999856,None,25.49642799999856,None,25.49642799999856,None,,,,,,,,,,,001,2021_Jul_13_1503,UniformityIllusion,2021.1.4,None,
C:\Users\hesselmann\Desktop\PsychoPyUniformityIllusion\UniformityIllusionPsychoPy\Pics\2start.png,C:\Users\hesselmann\Desktop\PsychoPyUniformityIllusion\UniformityIllusionPsychoPy\Pics\2a.png,a,0,2,2,2,,,,,,,,,,,,,,,,,,,,,,,,28.620847199999844,None,space,3.3287085000047227,28.620847199999844,None,28.620847199999844,None,28.620847199999844,None,,,,,,,,,,,001,2021_Jul_13_1503,UniformityIllusion,2021.1.4,None,
C:\Users\hesselmann\Desktop\PsychoPyUniformityIllusion\UniformityIllusionPsychoPy\Pics\2start.png,C:\Users\hesselmann\Desktop\PsychoPyUniformityIllusion\UniformityIllusionPsychoPy\Pics\2b.png,b,0,3,3,3,,,,,,,,,,,,,,,,,,,,,,,,32.348034700000426,None,space,3.24985170000582,32.348034700000426,None,32.348034700000426,None,32.348034700000426,None,,,,,,,,,,,001,2021_Jul_13_1503,UniformityIllusion,2021.1.4,None,
C:\Users\hesselmann\Desktop\PsychoPyUniformityIllusion\UniformityIllusionPsychoPy\Pics\3start.png,C:\Users\hesselmann\Desktop\PsychoPyUniformityIllusion\UniformityIllusionPsychoPy\Pics\3a.png,a,0,4,4,4,,,,,,,,,,,,,,,,,,,,,,,,35.94721900000877,None,None,,35.94721900000877,None,35.94721900000877,None,35.94721900000877,None,,,,,,,,,,,001,2021_Jul_13_1503,UniformityIllusion,2021.1.4,None,
C:\Users\hesselmann\Desktop\PsychoPyUniformityIllusion\UniformityIllusionPsychoPy\Pics\3start.png,C:\Users\hesselmann\Desktop\PsychoPyUniformityIllusion\UniformityIllusionPsychoPy\Pics\3b.png,b,0,5,5,5,,,,,,,,,,,,,,,,,,,,,,,,38.93016346666943,None,None,,38.93016346666943,None,38.93016346666943,None,38.93016346666943,None,,,,,,,,,,,001,2021_Jul_13_1503,UniformityIllusion,2021.1.4,None,
C:\Users\hesselmann\Desktop\PsychoPyUniformityIllusion\UniformityIllusionPsychoPy\Pics\4start.png,C:\Users\hesselmann\Desktop\PsychoPyUniformityIllusion\UniformityIllusionPsychoPy\Pics\4a.png,a,,,,,0,0,0,0,39.02955570000631,None,,,,,,,,,,,,,,,,,,,,,,,,,,,,41.145962433338475,None,None,41.145962433338475,None,41.145962433338475,None,41.145962433338475,None,,001,2021_Jul_13_1503,UniformityIllusion,2021.1.4,None,
C:\Users\hesselmann\Desktop\PsychoPyUniformityIllusion\UniformityIllusionPsychoPy\Pics\4start.png,C:\Users\hesselmann\Desktop\PsychoPyUniformityIllusion\UniformityIllusionPsychoPy\Pics\4b.png,b,,,,,0,1,1,1,,,,,,,,,,,,,,,,,,,,,,,,,,,,,,41.34596243333848,None,None,41.34596243333848,None,41.34596243333848,None,41.34596243333848,None,,001,2021_Jul_13_1503,UniformityIllusion,2021.1.4,None,
C:\Users\hesselmann\Desktop\PsychoPyUniformityIllusion\UniformityIllusionPsychoPy\Pics\5start.png,C:\Users\hesselmann\Desktop\PsychoPyUniformityIllusion\UniformityIllusionPsychoPy\Pics\5a.png,a,,,,,0,2,2,2,,,,,,,,,,,,,,,,,,,,,,,,,,,,,,41.612629100005144,None,None,41.612629100005144,None,41.612629100005144,None,41.612629100005144,None,,001,2021_Jul_13_1503,UniformityIllusion,2021.1.4,None,
C:\Users\hesselmann\Desktop\PsychoPyUniformityIllusion\UniformityIllusionPsychoPy\Pics\5start.png,C:\Users\hesselmann\Desktop\PsychoPyUniformityIllusion\UniformityIllusionPsychoPy\Pics\5b.png,b,,,,,0,3,3,3,,,,,,,,,,,,,,,,,,,,,,,,,,,,,,41.895962433338475,None,None,41.895962433338475,None,41.895962433338475,None,41.895962433338475,None,,001,2021_Jul_13_1503,UniformityIllusion,2021.1.4,None,
C:\Users\hesselmann\Desktop\PsychoPyUniformityIllusion\UniformityIllusionPsychoPy\Pics\6start.png,C:\Users\hesselmann\Desktop\PsychoPyUniformityIllusion\UniformityIllusionPsychoPy\Pics\6a.png,a,,,,,0,4,4,4,,,,,,,,,,,,,,,,,,,,,,,,,,,,,,42.16262910000514,None,None,42.16262910000514,None,42.16262910000514,None,42.16262910000514,None,,001,2021_Jul_13_1503,UniformityIllusion,2021.1.4,None,
C:\Users\hesselmann\Desktop\PsychoPyUniformityIllusion\UniformityIllusionPsychoPy\Pics\6start.png,C:\Users\hesselmann\Desktop\PsychoPyUniformityIllusion\UniformityIllusionPsychoPy\Pics\6b.png,b,,,,,0,5,5,5,,,,,,,,,,,,,,,,,,,,,,,,,,,,,,42.37929576667181,None,None,42.37929576667181,None,42.37929576667181,None,42.37929576667181,None,,001,2021_Jul_13_1503,UniformityIllusion,2021.1.4,None,
C:\Users\hesselmann\Desktop\PsychoPyUniformityIllusion\UniformityIllusionPsychoPy\Pics\7start.png,C:\Users\hesselmann\Desktop\PsychoPyUniformityIllusion\UniformityIllusionPsychoPy\Pics\7a.png,None,,,,,0,6,6,6,,,,,,,,,,,,,,,,,,,,,,,,,,,,,,42.66262910000514,None,None,42.66262910000514,None,42.66262910000514,None,42.66262910000514,None,,001,2021_Jul_13_1503,UniformityIllusion,2021.1.4,None,
C:\Users\hesselmann\Desktop\PsychoPyUniformityIllusion\UniformityIllusionPsychoPy\Pics\7start.png,C:\Users\hesselmann\Desktop\PsychoPyUniformityIllusion\UniformityIllusionPsychoPy\Pics\7b.png,None,,,,,0,7,7,7,,,,,,,,,,,,,,,,,,,,,,,,,,,,,,42.96262910000514,None,None,42.96262910000514,None,42.96262910000514,None,42.96262910000514,None,,001,2021_Jul_13_1503,UniformityIllusion,2021.1.4,None,
C:\Users\hesselmann\Desktop\PsychoPyUniformityIllusion\UniformityIllusionPsychoPy\Pics\8start.png,C:\Users\hesselmann\Desktop\PsychoPyUniformityIllusion\UniformityIllusionPsychoPy\Pics\8a.png,None,,,,,0,8,8,8,,,,,,,,,,,,,,,,,,,,,,,,,,,,,,43.22929576667181,None,None,43.22929576667181,None,43.22929576667181,None,43.22929576667181,None,,001,2021_Jul_13_1503,UniformityIllusion,2021.1.4,None,
C:\Users\hesselmann\Desktop\PsychoPyUniformityIllusion\UniformityIllusionPsychoPy\Pics\8start.png,C:\Users\hesselmann\Desktop\PsychoPyUniformityIllusion\UniformityIllusionPsychoPy\Pics\8b.png,None,,,,,0,9,9,9,,,,,,,,,,,,,,,,,,,,,,,,,,,,,,43.46262910000514,None,None,43.46262910000514,None,43.46262910000514,None,43.46262910000514,None,,001,2021_Jul_13_1503,UniformityIllusion,2021.1.4,None,
C:\Users\hesselmann\Desktop\PsychoPyUniformityIllusion\UniformityIllusionPsychoPy\Pics\9start.png,C:\Users\hesselmann\Desktop\PsychoPyUniformityIllusion\UniformityIllusionPsychoPy\Pics\9a.png,None,,,,,0,10,10,10,,,,,,,,,,,,,,,,,,,,,,,,,,,,,,43.67929576667181,None,None,43.67929576667181,None,43.67929576667181,None,43.67929576667181,None,,001,2021_Jul_13_1503,UniformityIllusion,2021.1.4,None,
C:\Users\hesselmann\Desktop\PsychoPyUniformityIllusion\UniformityIllusionPsychoPy\Pics\9start.png,C:\Users\hesselmann\Desktop\PsychoPyUniformityIllusion\UniformityIllusionPsychoPy\Pics\9b.png,None,,,,,0,11,11,11,,,,,,,,,,,,,,,,,,,,,,,,,,,,,,43.895962433338475,None,None,43.895962433338475,None,43.895962433338475,None,43.895962433338475,None,,001,2021_Jul_13_1503,UniformityIllusion,2021.1.4,None,
C:\Users\hesselmann\Desktop\PsychoPyUniformityIllusion\UniformityIllusionPsychoPy\Pics\10start.png,C:\Users\hesselmann\Desktop\PsychoPyUniformityIllusion\UniformityIllusionPsychoPy\Pics\10a.png,None,,,,,0,12,12,12,,,,,,,,,,,,,,,,,,,,,,,,,,,,,,44.16262910000514,None,None,44.16262910000514,None,44.16262910000514,None,44.16262910000514,None,,001,2021_Jul_13_1503,UniformityIllusion,2021.1.4,None,
C:\Users\hesselmann\Desktop\PsychoPyUniformityIllusion\UniformityIllusionPsychoPy\Pics\10start.png,C:\Users\hesselmann\Desktop\PsychoPyUniformityIllusion\UniformityIllusionPsychoPy\Pics\10b.png,None,,,,,0,13,13,13,,,,,,,,,,,,,,,,,,,,,,,,,,,,,,44.47929576667181,None,None,44.47929576667181,None,44.47929576667181,None,44.47929576667181,None,,001,2021_Jul_13_1503,UniformityIllusion,2021.1.4,None,
C:\Users\hesselmann\Desktop\PsychoPyUniformityIllusion\UniformityIllusionPsychoPy\Pics\11start.png,C:\Users\hesselmann\Desktop\PsychoPyUniformityIllusion\UniformityIllusionPsychoPy\Pics\11a.png,None,,,,,0,14,14,14,,,,,,,,,,,,,,,,,,,,,,,,,,,,,,44.96398390000104,None,None,44.96398390000104,None,44.96398390000104,None,44.96398390000104,None,,001,2021_Jul_13_1503,UniformityIllusion,2021.1.4,None,
C:\Users\hesselmann\Desktop\PsychoPyUniformityIllusion\UniformityIllusionPsychoPy\Pics\11start.png,C:\Users\hesselmann\Desktop\PsychoPyUniformityIllusion\UniformityIllusionPsychoPy\Pics\11b.png,None,,,,,0,15,15,15,,,,,,,,,,,,,,,,,,,,,,,,,,,,,,48.306675166663865,None,None,48.306675166663865,None,48.306675166663865,None,48.306675166663865,None,,001,2021_Jul_13_1503,UniformityIllusion,2021.1.4,None,
C:\Users\hesselmann\Desktop\PsychoPyUniformityIllusion\UniformityIllusionPsychoPy\Pics\12start.png,C:\Users\hesselmann\Desktop\PsychoPyUniformityIllusion\UniformityIllusionPsychoPy\Pics\12a.png,None,,,,,0,16,16,16,,,,,,,,,,,,,,,,,,,,,,,,,,,,,,48.62468930000614,None,None,48.62468930000614,None,48.62468930000614,None,48.62468930000614,None,,001,2021_Jul_13_1503,UniformityIllusion,2021.1.4,None,
C:\Users\hesselmann\Desktop\PsychoPyUniformityIllusion\UniformityIllusionPsychoPy\Pics\12start.png,C:\Users\hesselmann\Desktop\PsychoPyUniformityIllusion\UniformityIllusionPsychoPy\Pics\12b.png,None,,,,,0,17,17,17,,,,,,,,,,,,,,,,,,,,,,,,,,,,,,48.97878236666244,None,None,48.97878236666244,None,48.97878236666244,None,48.97878236666244,None,,001,2021_Jul_13_1503,UniformityIllusion,2021.1.4,None,
C:\Users\hesselmann\Desktop\PsychoPyUniformityIllusion\UniformityIllusionPsychoPy\Pics\13start.png,C:\Users\hesselmann\Desktop\PsychoPyUniformityIllusion\UniformityIllusionPsychoPy\Pics\13a.png,None,,,,,0,18,18,18,,,,,,,,,,,,,,,,,,,,,,,,,,,,,,49.37776640000811,None,None,49.37776640000811,None,49.37776640000811,None,49.37776640000811,None,,001,2021_Jul_13_1503,UniformityIllusion,2021.1.4,None,
C:\Users\hesselmann\Desktop\PsychoPyUniformityIllusion\UniformityIllusionPsychoPy\Pics\13start.png,C:\Users\hesselmann\Desktop\PsychoPyUniformityIllusion\UniformityIllusionPsychoPy\Pics\13b.png,None,,,,,0,19,19,19,,,,,,,,,,,,,,,,,,,,,,,,,,,,,,52.906338399997914,None,None,52.906338399997914,None,52.906338399997914,None,52.906338399997914,None,,001,2021_Jul_13_1503,UniformityIllusion,2021.1.4,None,
C:\Users\hesselmann\Desktop\PsychoPyUniformityIllusion\UniformityIllusionPsychoPy\Pics\14start.png,C:\Users\hesselmann\Desktop\PsychoPyUniformityIllusion\UniformityIllusionPsychoPy\Pics\14a.png,None,,,,,0,20,20,20,,,,,,,,,,,,,,,,,,,,,,,,,,,,,,53.333346600004006,63.44387879999704,None,53.333346600004006,None,53.333346600004006,63.44387879999704,53.333346600004006,None,,001,2021_Jul_13_1503,UniformityIllusion,2021.1.4,None,
C:\Users\hesselmann\Desktop\PsychoPyUniformityIllusion\UniformityIllusionPsychoPy\Pics\14start.png,C:\Users\hesselmann\Desktop\PsychoPyUniformityIllusion\UniformityIllusionPsychoPy\Pics\14b.png,None,,,,,0,21,21,21,,,,,,,,,,,,,,,,,,,,,,,,,,,,,,64.1292398333336,None,None,64.1292398333336,None,64.1292398333336,None,64.1292398333336,None,,001,2021_Jul_13_1503,UniformityIllusion,2021.1.4,None,
C:\Users\hesselmann\Desktop\PsychoPyUniformityIllusion\UniformityIllusionPsychoPy\Pics\15start.png,C:\Users\hesselmann\Desktop\PsychoPyUniformityIllusion\UniformityIllusionPsychoPy\Pics\15a.png,None,,,,,0,22,22,22,,,,,,,,,,,,,,,,,,,,,,,,,,,,,,64.3292398333336,None,None,64.3292398333336,None,64.3292398333336,None,64.3292398333336,None,,001,2021_Jul_13_1503,UniformityIllusion,2021.1.4,None,
C:\Users\hesselmann\Desktop\PsychoPyUniformityIllusion\UniformityIllusionPsychoPy\Pics\15start.png,C:\Users\hesselmann\Desktop\PsychoPyUniformityIllusion\UniformityIllusionPsychoPy\Pics\15b.png,None,,,,,0,23,23,23,,,,,,,,,,,,,,,,,,,,,,,,,,,,,,64.51257316666694,None,None,64.51257316666694,None,64.51257316666694,None,64.51257316666694,None,,001,2021_Jul_13_1503,UniformityIllusion,2021.1.4,None,
