startImage,midImage,endImage,AB,PracticeTrialsLoop.thisRepN,PracticeTrialsLoop.thisTrialN,PracticeTrialsLoop.thisN,PracticeTrialsLoop.thisIndex,TestTrialsLoop.thisRepN,TestTrialsLoop.thisTrialN,TestTrialsLoop.thisN,TestTrialsLoop.thisIndex,WelcomeText.started,WelcomeText.stopped,DepressionQuestionnaire.index,DepressionQuestionnaire.itemText,DepressionQuestionnaire.type,DepressionQuestionnaire.Scoring,DepressionQuestionnaire.response,DepressionQuestionnaire.rt,button.started,button.stopped,button.numClicks,button.timesOn,button.timesOff,instructionsText.started,instructionsText.stopped,nextScreen.keys,nextScreen.rt,nextScreen.started,nextScreen.stopped,stimulusInterval,hasPeriphery.started,hasPeriphery.stopped,key_resp.keys,key_resp.rt,key_resp.started,key_resp.stopped,noPeriphery.started,noPeriphery.stopped,final.started,final.stopped,blank_screen.started,blank_screen.stopped,text.started,text.stopped,participant,session,date,expName,psychopyVersion,frameRate,
,,,,,,,,,,,,13.762084300000424,None,Sadness,Sadness,choice,"0,1,2,3",None,None,,,,,,,,,,,,,,,,,,,,,,,,,,,,001,2021_Jul_29_1150,UniformityIllusion,2021.1.4,None,
,,,,,,,,,,,,,,Pessimism,Pessimism,choice,"0,1,2,3",None,None,,,,,,,,,,,,,,,,,,,,,,,,,,,,001,2021_Jul_29_1150,UniformityIllusion,2021.1.4,None,
,,,,,,,,,,,,,,,,,,,,14.83844500000032,None,1,[1.0570129999996425],[1.0570178999996642],15.847474000000147,None,space,0.9448901000005208,15.847474000000147,None,,,,,,,,,,,,,,,,,001,2021_Jul_29_1150,UniformityIllusion,2021.1.4,None,
C:\Users\hesselmann\Desktop\PsychoPyUniformityIllusion\UniformityIllusionPsychoPy\Pics\1start.png,C:\Users\hesselmann\Desktop\PsychoPyUniformityIllusion\UniformityIllusionPsychoPy\Pics\1a.png,C:\Users\hesselmann\Desktop\PsychoPyUniformityIllusion\UniformityIllusionPsychoPy\Pics\1a.png,a,0,0,0,0,,,,,,,,,,,,,,,,,,,,,,,,3,17.234228999999686,None,space,6.990893600000163,17.234228999999686,None,17.234228999999686,None,None,None,None,None,17.234228999999686,None,,001,2021_Jul_29_1150,UniformityIllusion,2021.1.4,None,
C:\Users\hesselmann\Desktop\PsychoPyUniformityIllusion\UniformityIllusionPsychoPy\Pics\3start.png,C:\Users\hesselmann\Desktop\PsychoPyUniformityIllusion\UniformityIllusionPsychoPy\Pics\3a.png,C:\Users\hesselmann\Desktop\PsychoPyUniformityIllusion\UniformityIllusionPsychoPy\Pics\3a.png,a,0,1,1,4,,,,,,,,,,,,,,,,,,,,,,,,3,24.6483616000005,None,space,6.7214130000002115,24.6483616000005,None,24.6483616000005,None,31.47109886666682,None,31.454432200000156,None,24.6483616000005,None,,001,2021_Jul_29_1150,UniformityIllusion,2021.1.4,None,
C:\Users\hesselmann\Desktop\PsychoPyUniformityIllusion\UniformityIllusionPsychoPy\Pics\1start.png,C:\Users\hesselmann\Desktop\PsychoPyUniformityIllusion\UniformityIllusionPsychoPy\Pics\1a.png,C:\Users\hesselmann\Desktop\PsychoPyUniformityIllusion\UniformityIllusionPsychoPy\Pics\1b.png,b,0,2,2,1,,,,,,,,,,,,,,,,,,,,,,,,2,31.972332399999686,42.06367750000027,None,,31.972332399999686,None,31.972332399999686,42.06367750000027,36.81748040000002,None,40.70915630000036,41.358719400000155,31.972332399999686,None,,001,2021_Jul_29_1150,UniformityIllusion,2021.1.4,None,
C:\Users\hesselmann\Desktop\PsychoPyUniformityIllusion\UniformityIllusionPsychoPy\Pics\2start.png,C:\Users\hesselmann\Desktop\PsychoPyUniformityIllusion\UniformityIllusionPsychoPy\Pics\2a.png,C:\Users\hesselmann\Desktop\PsychoPyUniformityIllusion\UniformityIllusionPsychoPy\Pics\2b.png,b,0,3,3,3,,,,,,,,,,,,,,,,,,,,,,,,2,44.21134510000047,None,None,,44.21134510000047,None,44.21134510000047,None,48.52500359999976,None,51.972813999999744,52.517593900000065,44.21134510000047,None,,001,2021_Jul_29_1150,UniformityIllusion,2021.1.4,None,
C:\Users\hesselmann\Desktop\PsychoPyUniformityIllusion\UniformityIllusionPsychoPy\Pics\3start.png,C:\Users\hesselmann\Desktop\PsychoPyUniformityIllusion\UniformityIllusionPsychoPy\Pics\3a.png,C:\Users\hesselmann\Desktop\PsychoPyUniformityIllusion\UniformityIllusionPsychoPy\Pics\3b.png,b,0,4,4,5,,,,,,,,,,,,,,,,,,,,,,,,3,53.14105820000041,None,None,,53.14105820000041,None,53.14105820000041,None,None,None,None,None,53.14105820000041,None,,001,2021_Jul_29_1150,UniformityIllusion,2021.1.4,None,
C:\Users\hesselmann\Desktop\PsychoPyUniformityIllusion\UniformityIllusionPsychoPy\Pics\2start.png,C:\Users\hesselmann\Desktop\PsychoPyUniformityIllusion\UniformityIllusionPsychoPy\Pics\2a.png,C:\Users\hesselmann\Desktop\PsychoPyUniformityIllusion\UniformityIllusionPsychoPy\Pics\2a.png,a,0,5,5,2,,,,,,,,,,,,,,,,,,,,,,,,2,53.407724866667074,None,None,,53.407724866667074,None,53.407724866667074,None,None,None,None,None,53.407724866667074,None,,001,2021_Jul_29_1150,UniformityIllusion,2021.1.4,None,
C:\Users\hesselmann\Desktop\PsychoPyUniformityIllusion\UniformityIllusionPsychoPy\Pics\10start.png,C:\Users\hesselmann\Desktop\PsychoPyUniformityIllusion\UniformityIllusionPsychoPy\Pics\10a.png,C:\Users\hesselmann\Desktop\PsychoPyUniformityIllusion\UniformityIllusionPsychoPy\Pics\10a.png,None,,,,,0,0,0,12,53.54551590000028,None,,,,,,,,,,,,,,,,,,3,55.81472163333322,None,None,,55.81472163333322,None,55.81472163333322,None,None,None,None,None,55.81472163333322,None,,001,2021_Jul_29_1150,UniformityIllusion,2021.1.4,None,
C:\Users\hesselmann\Desktop\PsychoPyUniformityIllusion\UniformityIllusionPsychoPy\Pics\8start.png,C:\Users\hesselmann\Desktop\PsychoPyUniformityIllusion\UniformityIllusionPsychoPy\Pics\8a.png,C:\Users\hesselmann\Desktop\PsychoPyUniformityIllusion\UniformityIllusionPsychoPy\Pics\8a.png,None,,,,,0,1,1,8,,,,,,,,,,,,,,,,,,,,2,56.18138829999989,None,None,,56.18138829999989,None,56.18138829999989,None,None,None,None,None,56.18138829999989,None,,001,2021_Jul_29_1150,UniformityIllusion,2021.1.4,None,
C:\Users\hesselmann\Desktop\PsychoPyUniformityIllusion\UniformityIllusionPsychoPy\Pics\15start.png,C:\Users\hesselmann\Desktop\PsychoPyUniformityIllusion\UniformityIllusionPsychoPy\Pics\15a.png,C:\Users\hesselmann\Desktop\PsychoPyUniformityIllusion\UniformityIllusionPsychoPy\Pics\15a.png,None,,,,,0,2,2,22,,,,,,,,,,,,,,,,,,,,3,56.46472163333322,None,None,,56.46472163333322,None,56.46472163333322,None,None,None,None,None,56.46472163333322,None,,001,2021_Jul_29_1150,UniformityIllusion,2021.1.4,None,
C:\Users\hesselmann\Desktop\PsychoPyUniformityIllusion\UniformityIllusionPsychoPy\Pics\9start.png,C:\Users\hesselmann\Desktop\PsychoPyUniformityIllusion\UniformityIllusionPsychoPy\Pics\9a.png,C:\Users\hesselmann\Desktop\PsychoPyUniformityIllusion\UniformityIllusionPsychoPy\Pics\9b.png,None,,,,,0,3,3,11,,,,,,,,,,,,,,,,,,,,2,56.74805496666656,None,None,,56.74805496666656,None,56.74805496666656,None,None,None,None,None,56.74805496666656,None,,001,2021_Jul_29_1150,UniformityIllusion,2021.1.4,None,
C:\Users\hesselmann\Desktop\PsychoPyUniformityIllusion\UniformityIllusionPsychoPy\Pics\4start.png,C:\Users\hesselmann\Desktop\PsychoPyUniformityIllusion\UniformityIllusionPsychoPy\Pics\4a.png,C:\Users\hesselmann\Desktop\PsychoPyUniformityIllusion\UniformityIllusionPsychoPy\Pics\4a.png,a,,,,,0,4,4,0,,,,,,,,,,,,,,,,,,,,3,57.048054966666555,None,None,,57.048054966666555,None,57.048054966666555,None,None,None,None,None,57.048054966666555,None,,001,2021_Jul_29_1150,UniformityIllusion,2021.1.4,None,
C:\Users\hesselmann\Desktop\PsychoPyUniformityIllusion\UniformityIllusionPsychoPy\Pics\10start.png,C:\Users\hesselmann\Desktop\PsychoPyUniformityIllusion\UniformityIllusionPsychoPy\Pics\10a.png,C:\Users\hesselmann\Desktop\PsychoPyUniformityIllusion\UniformityIllusionPsychoPy\Pics\10b.png,None,,,,,0,5,5,13,,,,,,,,,,,,,,,,,,,,3,57.39805496666656,None,None,,57.39805496666656,None,57.39805496666656,None,None,None,None,None,57.39805496666656,None,,001,2021_Jul_29_1150,UniformityIllusion,2021.1.4,None,
C:\Users\hesselmann\Desktop\PsychoPyUniformityIllusion\UniformityIllusionPsychoPy\Pics\4start.png,C:\Users\hesselmann\Desktop\PsychoPyUniformityIllusion\UniformityIllusionPsychoPy\Pics\4a.png,C:\Users\hesselmann\Desktop\PsychoPyUniformityIllusion\UniformityIllusionPsychoPy\Pics\4b.png,b,,,,,0,6,6,1,,,,,,,,,,,,,,,,,,,,2,57.698054966666554,None,None,,57.698054966666554,None,57.698054966666554,None,None,None,None,None,57.698054966666554,None,,001,2021_Jul_29_1150,UniformityIllusion,2021.1.4,None,
C:\Users\hesselmann\Desktop\PsychoPyUniformityIllusion\UniformityIllusionPsychoPy\Pics\7start.png,C:\Users\hesselmann\Desktop\PsychoPyUniformityIllusion\UniformityIllusionPsychoPy\Pics\7a.png,C:\Users\hesselmann\Desktop\PsychoPyUniformityIllusion\UniformityIllusionPsychoPy\Pics\7b.png,None,,,,,0,7,7,7,,,,,,,,,,,,,,,,,,,,3,58.014721633333224,None,None,,58.014721633333224,None,58.014721633333224,None,None,None,None,None,58.014721633333224,None,,001,2021_Jul_29_1150,UniformityIllusion,2021.1.4,None,
C:\Users\hesselmann\Desktop\PsychoPyUniformityIllusion\UniformityIllusionPsychoPy\Pics\12start.png,C:\Users\hesselmann\Desktop\PsychoPyUniformityIllusion\UniformityIllusionPsychoPy\Pics\12a.png,C:\Users\hesselmann\Desktop\PsychoPyUniformityIllusion\UniformityIllusionPsychoPy\Pics\12a.png,None,,,,,0,8,8,16,,,,,,,,,,,,,,,,,,,,3,58.33138829999989,None,None,,58.33138829999989,None,58.33138829999989,None,None,None,None,None,58.33138829999989,None,,001,2021_Jul_29_1150,UniformityIllusion,2021.1.4,None,
C:\Users\hesselmann\Desktop\PsychoPyUniformityIllusion\UniformityIllusionPsychoPy\Pics\11start.png,C:\Users\hesselmann\Desktop\PsychoPyUniformityIllusion\UniformityIllusionPsychoPy\Pics\11a.png,C:\Users\hesselmann\Desktop\PsychoPyUniformityIllusion\UniformityIllusionPsychoPy\Pics\11a.png,None,,,,,0,9,9,14,,,,,,,,,,,,,,,,,,,,2,58.698054966666554,None,None,,58.698054966666554,None,58.698054966666554,None,None,None,None,None,58.698054966666554,None,,001,2021_Jul_29_1150,UniformityIllusion,2021.1.4,None,
C:\Users\hesselmann\Desktop\PsychoPyUniformityIllusion\UniformityIllusionPsychoPy\Pics\5start.png,C:\Users\hesselmann\Desktop\PsychoPyUniformityIllusion\UniformityIllusionPsychoPy\Pics\5a.png,C:\Users\hesselmann\Desktop\PsychoPyUniformityIllusion\UniformityIllusionPsychoPy\Pics\5a.png,a,,,,,0,10,10,2,,,,,,,,,,,,,,,,,,,,2,59.048054966666555,None,None,,59.048054966666555,None,59.048054966666555,None,None,None,None,None,59.048054966666555,None,,001,2021_Jul_29_1150,UniformityIllusion,2021.1.4,None,
C:\Users\hesselmann\Desktop\PsychoPyUniformityIllusion\UniformityIllusionPsychoPy\Pics\5start.png,C:\Users\hesselmann\Desktop\PsychoPyUniformityIllusion\UniformityIllusionPsychoPy\Pics\5a.png,C:\Users\hesselmann\Desktop\PsychoPyUniformityIllusion\UniformityIllusionPsychoPy\Pics\5b.png,b,,,,,0,11,11,3,,,,,,,,,,,,,,,,,,,,3,59.41472163333322,None,None,,59.41472163333322,None,59.41472163333322,None,None,None,None,None,59.41472163333322,None,,001,2021_Jul_29_1150,UniformityIllusion,2021.1.4,None,
C:\Users\hesselmann\Desktop\PsychoPyUniformityIllusion\UniformityIllusionPsychoPy\Pics\13start.png,C:\Users\hesselmann\Desktop\PsychoPyUniformityIllusion\UniformityIllusionPsychoPy\Pics\13a.png,C:\Users\hesselmann\Desktop\PsychoPyUniformityIllusion\UniformityIllusionPsychoPy\Pics\13a.png,None,,,,,0,12,12,18,,,,,,,,,,,,,,,,,,,,3,59.98138829999989,None,None,,59.98138829999989,None,59.98138829999989,None,None,None,None,None,59.98138829999989,None,,001,2021_Jul_29_1150,UniformityIllusion,2021.1.4,None,
C:\Users\hesselmann\Desktop\PsychoPyUniformityIllusion\UniformityIllusionPsychoPy\Pics\7start.png,C:\Users\hesselmann\Desktop\PsychoPyUniformityIllusion\UniformityIllusionPsychoPy\Pics\7a.png,C:\Users\hesselmann\Desktop\PsychoPyUniformityIllusion\UniformityIllusionPsychoPy\Pics\7a.png,None,,,,,0,13,13,6,,,,,,,,,,,,,,,,,,,,3,60.91090069999973,None,None,,60.91090069999973,None,60.91090069999973,None,None,None,None,None,60.91090069999973,None,,001,2021_Jul_29_1150,UniformityIllusion,2021.1.4,None,
,,,,,,,,,,,,,,,,,,,,,,,,,,,,,,,3,,,,,,,,,,,,,,,,,,,,,
