startImage,midImage,endImage,AB,PracticeTrialsLoop.thisRepN,PracticeTrialsLoop.thisTrialN,PracticeTrialsLoop.thisN,PracticeTrialsLoop.thisIndex,TestTrialsLoop.thisRepN,TestTrialsLoop.thisTrialN,TestTrialsLoop.thisN,TestTrialsLoop.thisIndex,WelcomeText.started,WelcomeText.stopped,DepressionQuestionnaire.index,DepressionQuestionnaire.itemText,DepressionQuestionnaire.type,DepressionQuestionnaire.Scoring,DepressionQuestionnaire.response,DepressionQuestionnaire.rt,button.started,button.stopped,button.numClicks,button.timesOn,button.timesOff,instructionsText.started,instructionsText.stopped,nextScreen.keys,nextScreen.rt,nextScreen.started,nextScreen.stopped,stimulusInterval,hasPeriphery.started,hasPeriphery.stopped,key_resp.keys,key_resp.started,key_resp.stopped,noPeriphery.started,noPeriphery.stopped,final.started,final.stopped,blank_screen.started,blank_screen.stopped,text.started,text.stopped,key_resp.rt,participant,session,date,expName,psychopyVersion,frameRate,
,,,,,,,,,,,,15.615577900000062,None,Sadness,Sadness,choice,"0,1,2,3",None,None,,,,,,,,,,,,,,,,,,,,,,,,,,,,001,2021_Jul_29_1223,UniformityIllusion,2021.1.4,None,
,,,,,,,,,,,,,,Pessimism,Pessimism,choice,"0,1,2,3",None,None,,,,,,,,,,,,,,,,,,,,,,,,,,,,001,2021_Jul_29_1223,UniformityIllusion,2021.1.4,None,
,,,,,,,,,,,,,,,,,,,,16.710464200001297,None,1,[0.7961367999996583],[0.7961431999992783],17.45492639999975,None,space,0.7214731000003667,17.45492639999975,None,,,,,,,,,,,,,,,,,001,2021_Jul_29_1223,UniformityIllusion,2021.1.4,None,
C:\Users\hesselmann\Desktop\PsychoPyUniformityIllusion\UniformityIllusionPsychoPy\Pics\1start.png,C:\Users\hesselmann\Desktop\PsychoPyUniformityIllusion\UniformityIllusionPsychoPy\Pics\1a.png,C:\Users\hesselmann\Desktop\PsychoPyUniformityIllusion\UniformityIllusionPsychoPy\Pics\1b.png,b,0,0,0,1,,,,,,,,,,,,,,,,,,,,,,,,3,18.61506770000051,None,None,18.61506770000051,None,18.61506770000051,None,None,None,None,None,18.61506770000051,None,,,001,2021_Jul_29_1223,UniformityIllusion,2021.1.4,None,
C:\Users\hesselmann\Desktop\PsychoPyUniformityIllusion\UniformityIllusionPsychoPy\Pics\3start.png,C:\Users\hesselmann\Desktop\PsychoPyUniformityIllusion\UniformityIllusionPsychoPy\Pics\3a.png,C:\Users\hesselmann\Desktop\PsychoPyUniformityIllusion\UniformityIllusionPsychoPy\Pics\3a.png,a,0,1,1,4,,,,,,,,,,,,,,,,,,,,,,,,2,19.94850823333339,None,None,19.94850823333339,None,19.94850823333339,None,None,None,None,None,19.94850823333339,None,,,001,2021_Jul_29_1223,UniformityIllusion,2021.1.4,None,
C:\Users\hesselmann\Desktop\PsychoPyUniformityIllusion\UniformityIllusionPsychoPy\Pics\1start.png,C:\Users\hesselmann\Desktop\PsychoPyUniformityIllusion\UniformityIllusionPsychoPy\Pics\1a.png,C:\Users\hesselmann\Desktop\PsychoPyUniformityIllusion\UniformityIllusionPsychoPy\Pics\1a.png,a,0,2,2,0,,,,,,,,,,,,,,,,,,,,,,,,3,20.181841566666723,None,None,20.181841566666723,None,20.181841566666723,None,None,None,None,None,20.181841566666723,None,,,001,2021_Jul_29_1223,UniformityIllusion,2021.1.4,None,
C:\Users\hesselmann\Desktop\PsychoPyUniformityIllusion\UniformityIllusionPsychoPy\Pics\2start.png,C:\Users\hesselmann\Desktop\PsychoPyUniformityIllusion\UniformityIllusionPsychoPy\Pics\2a.png,C:\Users\hesselmann\Desktop\PsychoPyUniformityIllusion\UniformityIllusionPsychoPy\Pics\2a.png,a,0,3,3,2,,,,,,,,,,,,,,,,,,,,,,,,2,20.415174900000057,None,None,20.415174900000057,None,20.415174900000057,None,None,None,None,None,20.415174900000057,None,,,001,2021_Jul_29_1223,UniformityIllusion,2021.1.4,None,
C:\Users\hesselmann\Desktop\PsychoPyUniformityIllusion\UniformityIllusionPsychoPy\Pics\3start.png,C:\Users\hesselmann\Desktop\PsychoPyUniformityIllusion\UniformityIllusionPsychoPy\Pics\3a.png,C:\Users\hesselmann\Desktop\PsychoPyUniformityIllusion\UniformityIllusionPsychoPy\Pics\3b.png,b,0,4,4,5,,,,,,,,,,,,,,,,,,,,,,,,2,20.615174900000056,None,None,20.615174900000056,None,20.615174900000056,None,None,None,None,None,20.615174900000056,None,,,001,2021_Jul_29_1223,UniformityIllusion,2021.1.4,None,
C:\Users\hesselmann\Desktop\PsychoPyUniformityIllusion\UniformityIllusionPsychoPy\Pics\2start.png,C:\Users\hesselmann\Desktop\PsychoPyUniformityIllusion\UniformityIllusionPsychoPy\Pics\2a.png,C:\Users\hesselmann\Desktop\PsychoPyUniformityIllusion\UniformityIllusionPsychoPy\Pics\2b.png,b,0,5,5,3,,,,,,,,,,,,,,,,,,,,,,,,3,20.848508233333387,None,None,20.848508233333387,None,20.848508233333387,None,None,None,None,None,20.848508233333387,None,,,001,2021_Jul_29_1223,UniformityIllusion,2021.1.4,None,
C:\Users\hesselmann\Desktop\PsychoPyUniformityIllusion\UniformityIllusionPsychoPy\Pics\7start.png,C:\Users\hesselmann\Desktop\PsychoPyUniformityIllusion\UniformityIllusionPsychoPy\Pics\7a.png,C:\Users\hesselmann\Desktop\PsychoPyUniformityIllusion\UniformityIllusionPsychoPy\Pics\7a.png,None,,,,,0,0,0,6,20.94941319999998,None,,,,,,,,,,,,,,,,,,3,23.232250933333972,None,None,23.232250933333972,None,23.232250933333972,None,None,None,None,None,23.232250933333972,None,,,001,2021_Jul_29_1223,UniformityIllusion,2021.1.4,None,
C:\Users\hesselmann\Desktop\PsychoPyUniformityIllusion\UniformityIllusionPsychoPy\Pics\14start.png,C:\Users\hesselmann\Desktop\PsychoPyUniformityIllusion\UniformityIllusionPsychoPy\Pics\14a.png,C:\Users\hesselmann\Desktop\PsychoPyUniformityIllusion\UniformityIllusionPsychoPy\Pics\14b.png,None,,,,,0,1,1,21,,,,,,,,,,,,,,,,,,,,3,23.62969880000128,None,None,23.62969880000128,None,23.62969880000128,None,None,None,None,None,23.62969880000128,None,,,001,2021_Jul_29_1223,UniformityIllusion,2021.1.4,None,
C:\Users\hesselmann\Desktop\PsychoPyUniformityIllusion\UniformityIllusionPsychoPy\Pics\11start.png,C:\Users\hesselmann\Desktop\PsychoPyUniformityIllusion\UniformityIllusionPsychoPy\Pics\11a.png,C:\Users\hesselmann\Desktop\PsychoPyUniformityIllusion\UniformityIllusionPsychoPy\Pics\11b.png,None,,,,,0,2,2,15,,,,,,,,,,,,,,,,,,,,2,25.475737133333798,None,None,25.475737133333798,None,25.475737133333798,None,None,None,None,None,25.475737133333798,None,,,001,2021_Jul_29_1223,UniformityIllusion,2021.1.4,None,
C:\Users\hesselmann\Desktop\PsychoPyUniformityIllusion\UniformityIllusionPsychoPy\Pics\12start.png,C:\Users\hesselmann\Desktop\PsychoPyUniformityIllusion\UniformityIllusionPsychoPy\Pics\12a.png,C:\Users\hesselmann\Desktop\PsychoPyUniformityIllusion\UniformityIllusionPsychoPy\Pics\12a.png,None,,,,,0,3,3,16,,,,,,,,,,,,,,,,,,,,3,25.759070466667133,None,None,25.759070466667133,None,25.759070466667133,None,None,None,None,None,25.759070466667133,None,,,001,2021_Jul_29_1223,UniformityIllusion,2021.1.4,None,
C:\Users\hesselmann\Desktop\PsychoPyUniformityIllusion\UniformityIllusionPsychoPy\Pics\13start.png,C:\Users\hesselmann\Desktop\PsychoPyUniformityIllusion\UniformityIllusionPsychoPy\Pics\13a.png,C:\Users\hesselmann\Desktop\PsychoPyUniformityIllusion\UniformityIllusionPsychoPy\Pics\13b.png,None,,,,,0,4,4,19,,,,,,,,,,,,,,,,,,,,3,26.042403800000464,None,None,26.042403800000464,None,26.042403800000464,None,None,None,None,None,26.042403800000464,None,,,001,2021_Jul_29_1223,UniformityIllusion,2021.1.4,None,
C:\Users\hesselmann\Desktop\PsychoPyUniformityIllusion\UniformityIllusionPsychoPy\Pics\8start.png,C:\Users\hesselmann\Desktop\PsychoPyUniformityIllusion\UniformityIllusionPsychoPy\Pics\8a.png,C:\Users\hesselmann\Desktop\PsychoPyUniformityIllusion\UniformityIllusionPsychoPy\Pics\8a.png,None,,,,,0,5,5,8,,,,,,,,,,,,,,,,,,,,2,26.3257371333338,None,None,26.3257371333338,None,26.3257371333338,None,None,None,None,None,26.3257371333338,None,,,001,2021_Jul_29_1223,UniformityIllusion,2021.1.4,None,
C:\Users\hesselmann\Desktop\PsychoPyUniformityIllusion\UniformityIllusionPsychoPy\Pics\15start.png,C:\Users\hesselmann\Desktop\PsychoPyUniformityIllusion\UniformityIllusionPsychoPy\Pics\15a.png,C:\Users\hesselmann\Desktop\PsychoPyUniformityIllusion\UniformityIllusionPsychoPy\Pics\15a.png,None,,,,,0,6,6,22,,,,,,,,,,,,,,,,,,,,2,26.542403800000464,None,None,26.542403800000464,None,26.542403800000464,None,None,None,None,None,26.542403800000464,None,,,001,2021_Jul_29_1223,UniformityIllusion,2021.1.4,None,
C:\Users\hesselmann\Desktop\PsychoPyUniformityIllusion\UniformityIllusionPsychoPy\Pics\5start.png,C:\Users\hesselmann\Desktop\PsychoPyUniformityIllusion\UniformityIllusionPsychoPy\Pics\5a.png,C:\Users\hesselmann\Desktop\PsychoPyUniformityIllusion\UniformityIllusionPsychoPy\Pics\5b.png,b,,,,,0,7,7,3,,,,,,,,,,,,,,,,,,,,3,26.93587690000095,None,None,26.93587690000095,None,26.93587690000095,None,None,None,None,None,26.93587690000095,None,,,001,2021_Jul_29_1223,UniformityIllusion,2021.1.4,None,
C:\Users\hesselmann\Desktop\PsychoPyUniformityIllusion\UniformityIllusionPsychoPy\Pics\6start.png,C:\Users\hesselmann\Desktop\PsychoPyUniformityIllusion\UniformityIllusionPsychoPy\Pics\6a.png,C:\Users\hesselmann\Desktop\PsychoPyUniformityIllusion\UniformityIllusionPsychoPy\Pics\6a.png,a,,,,,0,8,8,4,,,,,,,,,,,,,,,,,,,,3,27.952695833332957,None,None,27.952695833332957,None,27.952695833332957,None,None,None,None,None,27.952695833332957,None,,,001,2021_Jul_29_1223,UniformityIllusion,2021.1.4,None,
C:\Users\hesselmann\Desktop\PsychoPyUniformityIllusion\UniformityIllusionPsychoPy\Pics\8start.png,C:\Users\hesselmann\Desktop\PsychoPyUniformityIllusion\UniformityIllusionPsychoPy\Pics\8a.png,C:\Users\hesselmann\Desktop\PsychoPyUniformityIllusion\UniformityIllusionPsychoPy\Pics\8b.png,None,,,,,0,9,9,9,,,,,,,,,,,,,,,,,,,,2,28.323065300000962,None,space,28.323065300000962,None,28.323065300000962,None,32.736417100000835,None,36.314937799999825,36.87138210000012,28.323065300000962,None,8.797572800000125,,001,2021_Jul_29_1223,UniformityIllusion,2021.1.4,None,
C:\Users\hesselmann\Desktop\PsychoPyUniformityIllusion\UniformityIllusionPsychoPy\Pics\14start.png,C:\Users\hesselmann\Desktop\PsychoPyUniformityIllusion\UniformityIllusionPsychoPy\Pics\14a.png,C:\Users\hesselmann\Desktop\PsychoPyUniformityIllusion\UniformityIllusionPsychoPy\Pics\14a.png,None,,,,,0,10,10,20,,,,,,,,,,,,,,,,,,,,3,37.71064850000039,None,space,37.71064850000039,None,37.71064850000039,None,None,None,None,None,37.71064850000039,None,6.305725599999278,,001,2021_Jul_29_1223,UniformityIllusion,2021.1.4,None,
C:\Users\hesselmann\Desktop\PsychoPyUniformityIllusion\UniformityIllusionPsychoPy\Pics\9start.png,C:\Users\hesselmann\Desktop\PsychoPyUniformityIllusion\UniformityIllusionPsychoPy\Pics\9a.png,C:\Users\hesselmann\Desktop\PsychoPyUniformityIllusion\UniformityIllusionPsychoPy\Pics\9b.png,None,,,,,0,11,11,11,,,,,,,,,,,,,,,,,,,,3,44.39237289999983,54.56521140000041,None,44.39237289999983,None,44.39237289999983,54.56521140000041,51.34519270000055,None,52.925077600000805,53.465408500000194,44.39237289999983,None,,,001,2021_Jul_29_1223,UniformityIllusion,2021.1.4,None,
C:\Users\hesselmann\Desktop\PsychoPyUniformityIllusion\UniformityIllusionPsychoPy\Pics\4start.png,C:\Users\hesselmann\Desktop\PsychoPyUniformityIllusion\UniformityIllusionPsychoPy\Pics\4a.png,C:\Users\hesselmann\Desktop\PsychoPyUniformityIllusion\UniformityIllusionPsychoPy\Pics\4a.png,a,,,,,0,12,12,0,,,,,,,,,,,,,,,,,,,,3,56.632401500000924,None,None,56.632401500000924,None,56.632401500000924,None,None,None,None,None,56.632401500000924,None,,,001,2021_Jul_29_1223,UniformityIllusion,2021.1.4,None,
C:\Users\hesselmann\Desktop\PsychoPyUniformityIllusion\UniformityIllusionPsychoPy\Pics\13start.png,C:\Users\hesselmann\Desktop\PsychoPyUniformityIllusion\UniformityIllusionPsychoPy\Pics\13a.png,C:\Users\hesselmann\Desktop\PsychoPyUniformityIllusion\UniformityIllusionPsychoPy\Pics\13a.png,None,,,,,0,13,13,18,,,,,,,,,,,,,,,,,,,,3,59.32558939999981,None,None,59.32558939999981,None,59.32558939999981,None,None,None,None,None,59.32558939999981,None,,,001,2021_Jul_29_1223,UniformityIllusion,2021.1.4,None,
C:\Users\hesselmann\Desktop\PsychoPyUniformityIllusion\UniformityIllusionPsychoPy\Pics\5start.png,C:\Users\hesselmann\Desktop\PsychoPyUniformityIllusion\UniformityIllusionPsychoPy\Pics\5a.png,C:\Users\hesselmann\Desktop\PsychoPyUniformityIllusion\UniformityIllusionPsychoPy\Pics\5a.png,a,,,,,0,14,14,2,,,,,,,,,,,,,,,,,,,,2,59.92630300000019,None,None,59.92630300000019,None,59.92630300000019,None,None,None,None,None,59.92630300000019,None,,,001,2021_Jul_29_1223,UniformityIllusion,2021.1.4,None,
C:\Users\hesselmann\Desktop\PsychoPyUniformityIllusion\UniformityIllusionPsychoPy\Pics\10start.png,C:\Users\hesselmann\Desktop\PsychoPyUniformityIllusion\UniformityIllusionPsychoPy\Pics\10a.png,C:\Users\hesselmann\Desktop\PsychoPyUniformityIllusion\UniformityIllusionPsychoPy\Pics\10b.png,None,,,,,0,15,15,13,,,,,,,,,,,,,,,,,,,,2,60.525736900001355,None,None,60.525736900001355,None,60.525736900001355,None,None,None,None,None,60.525736900001355,None,,,001,2021_Jul_29_1223,UniformityIllusion,2021.1.4,None,
C:\Users\hesselmann\Desktop\PsychoPyUniformityIllusion\UniformityIllusionPsychoPy\Pics\7start.png,C:\Users\hesselmann\Desktop\PsychoPyUniformityIllusion\UniformityIllusionPsychoPy\Pics\7a.png,C:\Users\hesselmann\Desktop\PsychoPyUniformityIllusion\UniformityIllusionPsychoPy\Pics\7b.png,None,,,,,0,16,16,7,,,,,,,,,,,,,,,,,,,,2,61.08083050000096,None,None,61.08083050000096,None,61.08083050000096,None,None,None,None,None,61.08083050000096,None,,,001,2021_Jul_29_1223,UniformityIllusion,2021.1.4,None,
C:\Users\hesselmann\Desktop\PsychoPyUniformityIllusion\UniformityIllusionPsychoPy\Pics\10start.png,C:\Users\hesselmann\Desktop\PsychoPyUniformityIllusion\UniformityIllusionPsychoPy\Pics\10a.png,C:\Users\hesselmann\Desktop\PsychoPyUniformityIllusion\UniformityIllusionPsychoPy\Pics\10a.png,None,,,,,0,17,17,12,,,,,,,,,,,,,,,,,,,,3,62.10963133333292,None,None,62.10963133333292,None,62.10963133333292,None,None,None,None,None,62.10963133333292,None,,,001,2021_Jul_29_1223,UniformityIllusion,2021.1.4,None,
C:\Users\hesselmann\Desktop\PsychoPyUniformityIllusion\UniformityIllusionPsychoPy\Pics\4start.png,C:\Users\hesselmann\Desktop\PsychoPyUniformityIllusion\UniformityIllusionPsychoPy\Pics\4a.png,C:\Users\hesselmann\Desktop\PsychoPyUniformityIllusion\UniformityIllusionPsychoPy\Pics\4b.png,b,,,,,0,18,18,1,,,,,,,,,,,,,,,,,,,,2,62.40963133333292,None,None,62.40963133333292,None,62.40963133333292,None,None,None,None,None,62.40963133333292,None,,,001,2021_Jul_29_1223,UniformityIllusion,2021.1.4,None,
C:\Users\hesselmann\Desktop\PsychoPyUniformityIllusion\UniformityIllusionPsychoPy\Pics\11start.png,C:\Users\hesselmann\Desktop\PsychoPyUniformityIllusion\UniformityIllusionPsychoPy\Pics\11a.png,C:\Users\hesselmann\Desktop\PsychoPyUniformityIllusion\UniformityIllusionPsychoPy\Pics\11a.png,None,,,,,0,19,19,14,,,,,,,,,,,,,,,,,,,,3,62.79296466666625,None,None,62.79296466666625,None,62.79296466666625,None,None,None,None,None,62.79296466666625,None,,,001,2021_Jul_29_1223,UniformityIllusion,2021.1.4,None,
C:\Users\hesselmann\Desktop\PsychoPyUniformityIllusion\UniformityIllusionPsychoPy\Pics\9start.png,C:\Users\hesselmann\Desktop\PsychoPyUniformityIllusion\UniformityIllusionPsychoPy\Pics\9a.png,C:\Users\hesselmann\Desktop\PsychoPyUniformityIllusion\UniformityIllusionPsychoPy\Pics\9a.png,None,,,,,0,20,20,10,,,,,,,,,,,,,,,,,,,,3,63.30040399999962,None,None,63.30040399999962,None,63.30040399999962,None,None,None,None,None,63.30040399999962,None,,,001,2021_Jul_29_1223,UniformityIllusion,2021.1.4,None,
,,,,,,,,,,,,,,,,,,,,,,,,,,,,,,,2,,,,,,,,,,,,,,,,,,,,,
