startImage,endImage,AB,PracticeTrialsLoop.thisRepN,PracticeTrialsLoop.thisTrialN,PracticeTrialsLoop.thisN,PracticeTrialsLoop.thisIndex,TestTrialsLoop.thisRepN,TestTrialsLoop.thisTrialN,TestTrialsLoop.thisN,TestTrialsLoop.thisIndex,WelcomeText.started,WelcomeText.stopped,DepressionQuestionnaire.index,DepressionQuestionnaire.itemText,DepressionQuestionnaire.type,DepressionQuestionnaire.Scoring,DepressionQuestionnaire.response,DepressionQuestionnaire.rt,button.started,button.stopped,button.numClicks,button.timesOn,button.timesOff,instructionsText.started,instructionsText.stopped,nextScreen.keys,nextScreen.rt,nextScreen.started,nextScreen.stopped,hasPeriphery.started,hasPeriphery.stopped,key_resp.keys,key_resp.started,key_resp.stopped,noPeriphery.started,noPeriphery.stopped,text.started,text.stopped,key_resp.rt,hasPeriphery_2.started,hasPeriphery_2.stopped,key_resp_2.keys,key_resp_2.started,key_resp_2.stopped,noPeriphery_2.started,noPeriphery_2.stopped,text_2.started,text_2.stopped,key_resp_2.rt,participant,session,date,expName,psychopyVersion,frameRate,
,,,,,,,,,,,11.562819199999922,None,Sadness,Sadness,choice,"0,1,2,3",None,None,,,,,,,,,,,,,,,,,,,,,,,,,,,,,,,,,001,2021_Jul_14_1444,UniformityIllusion,2021.1.4,60.98274919990995,
,,,,,,,,,,,,,Pessimism,Pessimism,choice,"0,1,2,3",None,None,,,,,,,,,,,,,,,,,,,,,,,,,,,,,,,,,001,2021_Jul_14_1444,UniformityIllusion,2021.1.4,60.98274919990995,
,,,,,,,,,,,,,,,,,,,13.648898700000245,None,1,[1.2379713999998785],[1.2379770999996254],14.830047500000092,None,space,1.4267062999997506,14.830047500000092,None,,,,,,,,,,,,,,,,,,,,,,001,2021_Jul_14_1444,UniformityIllusion,2021.1.4,60.98274919990995,
C:\Users\hesselmann\Desktop\PsychoPyUniformityIllusion\UniformityIllusionPsychoPy\Pics\1start.png,C:\Users\hesselmann\Desktop\PsychoPyUniformityIllusion\UniformityIllusionPsychoPy\Pics\1a.png,a,0,0,0,0,,,,,,,,,,,,,,,,,,,,,,,,16.599066199999925,None,None,16.599066199999925,None,16.599066199999925,None,16.599066199999925,None,,,,,,,,,,,,,001,2021_Jul_14_1444,UniformityIllusion,2021.1.4,60.98274919990995,
C:\Users\hesselmann\Desktop\PsychoPyUniformityIllusion\UniformityIllusionPsychoPy\Pics\1start.png,C:\Users\hesselmann\Desktop\PsychoPyUniformityIllusion\UniformityIllusionPsychoPy\Pics\1b.png,b,0,1,1,1,,,,,,,,,,,,,,,,,,,,,,,,18.947756660000323,None,None,18.947756660000323,None,18.947756660000323,None,18.947756660000323,None,,,,,,,,,,,,,001,2021_Jul_14_1444,UniformityIllusion,2021.1.4,60.98274919990995,
C:\Users\hesselmann\Desktop\PsychoPyUniformityIllusion\UniformityIllusionPsychoPy\Pics\2start.png,C:\Users\hesselmann\Desktop\PsychoPyUniformityIllusion\UniformityIllusionPsychoPy\Pics\2a.png,a,0,2,2,2,,,,,,,,,,,,,,,,,,,,,,,,19.265519099999892,None,space,19.265519099999892,None,19.265519099999892,None,19.265519099999892,None,0.0375662999999804,,,,,,,,,,,,001,2021_Jul_14_1444,UniformityIllusion,2021.1.4,60.98274919990995,
C:\Users\hesselmann\Desktop\PsychoPyUniformityIllusion\UniformityIllusionPsychoPy\Pics\2start.png,C:\Users\hesselmann\Desktop\PsychoPyUniformityIllusion\UniformityIllusionPsychoPy\Pics\2b.png,b,0,3,3,3,,,,,,,,,,,,,,,,,,,,,,,,19.578773199999887,None,None,19.578773199999887,None,19.578773199999887,None,19.578773199999887,None,,,,,,,,,,,,,001,2021_Jul_14_1444,UniformityIllusion,2021.1.4,60.98274919990995,
C:\Users\hesselmann\Desktop\PsychoPyUniformityIllusion\UniformityIllusionPsychoPy\Pics\3start.png,C:\Users\hesselmann\Desktop\PsychoPyUniformityIllusion\UniformityIllusionPsychoPy\Pics\3a.png,a,0,4,4,4,,,,,,,,,,,,,,,,,,,,,,,,21.059317040000224,None,None,21.059317040000224,None,21.059317040000224,None,21.059317040000224,None,,,,,,,,,,,,,001,2021_Jul_14_1444,UniformityIllusion,2021.1.4,60.98274919990995,
C:\Users\hesselmann\Desktop\PsychoPyUniformityIllusion\UniformityIllusionPsychoPy\Pics\3start.png,C:\Users\hesselmann\Desktop\PsychoPyUniformityIllusion\UniformityIllusionPsychoPy\Pics\3b.png,b,0,5,5,5,,,,,,,,,,,,,,,,,,,,,,,,21.41181000000006,None,space,21.41181000000006,None,21.41181000000006,None,21.41181000000006,None,1.6836585999999443,,,,,,,,,,,,001,2021_Jul_14_1444,UniformityIllusion,2021.1.4,60.98274919990995,
C:\Users\hesselmann\Desktop\PsychoPyUniformityIllusion\UniformityIllusionPsychoPy\Pics\4start.png,C:\Users\hesselmann\Desktop\PsychoPyUniformityIllusion\UniformityIllusionPsychoPy\Pics\4a.png,a,,,,,0,0,0,0,23.194723300000078,None,,,,,,,,,,,,,,,,,,,,,,,,,,,,25.326151080000272,None,None,25.326151080000272,None,25.326151080000272,None,25.326151080000272,None,,,001,2021_Jul_14_1444,UniformityIllusion,2021.1.4,60.98274919990995,
C:\Users\hesselmann\Desktop\PsychoPyUniformityIllusion\UniformityIllusionPsychoPy\Pics\4start.png,C:\Users\hesselmann\Desktop\PsychoPyUniformityIllusion\UniformityIllusionPsychoPy\Pics\4b.png,b,,,,,0,1,1,1,,,,,,,,,,,,,,,,,,,,,,,,,,,,,,25.52380452000034,None,None,25.52380452000034,None,25.52380452000034,None,25.52380452000034,None,,,001,2021_Jul_14_1444,UniformityIllusion,2021.1.4,60.98274919990995,
C:\Users\hesselmann\Desktop\PsychoPyUniformityIllusion\UniformityIllusionPsychoPy\Pics\5start.png,C:\Users\hesselmann\Desktop\PsychoPyUniformityIllusion\UniformityIllusionPsychoPy\Pics\5a.png,a,,,,,0,2,2,2,,,,,,,,,,,,,,,,,,,,,,,,,,,,,,25.78734244000043,None,None,25.78734244000043,None,25.78734244000043,None,25.78734244000043,None,,,001,2021_Jul_14_1444,UniformityIllusion,2021.1.4,60.98274919990995,
C:\Users\hesselmann\Desktop\PsychoPyUniformityIllusion\UniformityIllusionPsychoPy\Pics\5start.png,C:\Users\hesselmann\Desktop\PsychoPyUniformityIllusion\UniformityIllusionPsychoPy\Pics\5b.png,b,,,,,0,3,3,3,,,,,,,,,,,,,,,,,,,,,,,,,,,,,,26.05088036000052,None,None,26.05088036000052,None,26.05088036000052,None,26.05088036000052,None,,,001,2021_Jul_14_1444,UniformityIllusion,2021.1.4,60.98274919990995,
C:\Users\hesselmann\Desktop\PsychoPyUniformityIllusion\UniformityIllusionPsychoPy\Pics\6start.png,C:\Users\hesselmann\Desktop\PsychoPyUniformityIllusion\UniformityIllusionPsychoPy\Pics\6a.png,a,,,,,0,4,4,4,,,,,,,,,,,,,,,,,,,,,,,,,,,,,,26.330889400000615,None,None,26.330889400000615,None,26.330889400000615,None,26.330889400000615,None,,,001,2021_Jul_14_1444,UniformityIllusion,2021.1.4,60.98274919990995,
C:\Users\hesselmann\Desktop\PsychoPyUniformityIllusion\UniformityIllusionPsychoPy\Pics\6start.png,C:\Users\hesselmann\Desktop\PsychoPyUniformityIllusion\UniformityIllusionPsychoPy\Pics\6b.png,b,,,,,0,5,5,5,,,,,,,,,,,,,,,,,,,,,,,,,,,,,,26.763350100000025,None,None,26.763350100000025,None,26.763350100000025,None,26.763350100000025,None,,,001,2021_Jul_14_1444,UniformityIllusion,2021.1.4,60.98274919990995,
C:\Users\hesselmann\Desktop\PsychoPyUniformityIllusion\UniformityIllusionPsychoPy\Pics\7start.png,C:\Users\hesselmann\Desktop\PsychoPyUniformityIllusion\UniformityIllusionPsychoPy\Pics\7a.png,None,,,,,0,6,6,6,,,,,,,,,,,,,,,,,,,,,,,,,,,,,,27.677144460000363,None,None,27.677144460000363,None,27.677144460000363,None,27.677144460000363,None,,,001,2021_Jul_14_1444,UniformityIllusion,2021.1.4,60.98274919990995,
C:\Users\hesselmann\Desktop\PsychoPyUniformityIllusion\UniformityIllusionPsychoPy\Pics\7start.png,C:\Users\hesselmann\Desktop\PsychoPyUniformityIllusion\UniformityIllusionPsychoPy\Pics\7b.png,None,,,,,0,7,7,7,,,,,,,,,,,,,,,,,,,,,,,,,,,,,,28.179782799999884,None,None,28.179782799999884,None,28.179782799999884,None,28.179782799999884,None,,,001,2021_Jul_14_1444,UniformityIllusion,2021.1.4,60.98274919990995,
C:\Users\hesselmann\Desktop\PsychoPyUniformityIllusion\UniformityIllusionPsychoPy\Pics\8start.png,C:\Users\hesselmann\Desktop\PsychoPyUniformityIllusion\UniformityIllusionPsychoPy\Pics\8a.png,None,,,,,0,8,8,8,,,,,,,,,,,,,,,,,,,,,,,,,,,,,,28.65749926000035,None,None,28.65749926000035,None,28.65749926000035,None,28.65749926000035,None,,,001,2021_Jul_14_1444,UniformityIllusion,2021.1.4,60.98274919990995,
C:\Users\hesselmann\Desktop\PsychoPyUniformityIllusion\UniformityIllusionPsychoPy\Pics\8start.png,C:\Users\hesselmann\Desktop\PsychoPyUniformityIllusion\UniformityIllusionPsychoPy\Pics\8b.png,None,,,,,0,9,9,9,,,,,,,,,,,,,,,,,,,,,,,,,,,,,,28.904566060000434,None,None,28.904566060000434,None,28.904566060000434,None,28.904566060000434,None,,,001,2021_Jul_14_1444,UniformityIllusion,2021.1.4,60.98274919990995,
C:\Users\hesselmann\Desktop\PsychoPyUniformityIllusion\UniformityIllusionPsychoPy\Pics\9start.png,C:\Users\hesselmann\Desktop\PsychoPyUniformityIllusion\UniformityIllusionPsychoPy\Pics\9a.png,None,,,,,0,10,10,10,,,,,,,,,,,,,,,,,,,,,,,,,,,,,,29.29438600000003,None,None,29.29438600000003,None,29.29438600000003,None,29.29438600000003,None,,,001,2021_Jul_14_1444,UniformityIllusion,2021.1.4,60.98274919990995,
C:\Users\hesselmann\Desktop\PsychoPyUniformityIllusion\UniformityIllusionPsychoPy\Pics\9start.png,C:\Users\hesselmann\Desktop\PsychoPyUniformityIllusion\UniformityIllusionPsychoPy\Pics\9b.png,None,,,,,0,11,11,11,,,,,,,,,,,,,,,,,,,,,,,,,,,,,,31.194998039999973,None,None,31.194998039999973,None,31.194998039999973,None,31.194998039999973,None,,,001,2021_Jul_14_1444,UniformityIllusion,2021.1.4,60.98274919990995,
C:\Users\hesselmann\Desktop\PsychoPyUniformityIllusion\UniformityIllusionPsychoPy\Pics\10start.png,C:\Users\hesselmann\Desktop\PsychoPyUniformityIllusion\UniformityIllusionPsychoPy\Pics\10a.png,None,,,,,0,12,12,12,,,,,,,,,,,,,,,,,,,,,,,,,,,,,,31.47500708000007,None,None,31.47500708000007,None,31.47500708000007,None,31.47500708000007,None,,,001,2021_Jul_14_1444,UniformityIllusion,2021.1.4,60.98274919990995,
C:\Users\hesselmann\Desktop\PsychoPyUniformityIllusion\UniformityIllusionPsychoPy\Pics\10start.png,C:\Users\hesselmann\Desktop\PsychoPyUniformityIllusion\UniformityIllusionPsychoPy\Pics\10b.png,None,,,,,0,13,13,13,,,,,,,,,,,,,,,,,,,,,,,,,,,,,,31.787958360000175,None,None,31.787958360000175,None,31.787958360000175,None,31.787958360000175,None,,,001,2021_Jul_14_1444,UniformityIllusion,2021.1.4,60.98274919990995,
C:\Users\hesselmann\Desktop\PsychoPyUniformityIllusion\UniformityIllusionPsychoPy\Pics\11start.png,C:\Users\hesselmann\Desktop\PsychoPyUniformityIllusion\UniformityIllusionPsychoPy\Pics\11a.png,None,,,,,0,14,14,14,,,,,,,,,,,,,,,,,,,,,,,,,,,,,,32.31071030000021,None,None,32.31071030000021,None,32.31071030000021,None,32.31071030000021,None,,,001,2021_Jul_14_1444,UniformityIllusion,2021.1.4,60.98274919990995,
C:\Users\hesselmann\Desktop\PsychoPyUniformityIllusion\UniformityIllusionPsychoPy\Pics\11start.png,C:\Users\hesselmann\Desktop\PsychoPyUniformityIllusion\UniformityIllusionPsychoPy\Pics\11b.png,None,,,,,0,15,15,15,,,,,,,,,,,,,,,,,,,,,,,,,,,,,,33.79073288000018,None,None,33.79073288000018,None,33.79073288000018,None,33.79073288000018,None,,,001,2021_Jul_14_1444,UniformityIllusion,2021.1.4,60.98274919990995,
C:\Users\hesselmann\Desktop\PsychoPyUniformityIllusion\UniformityIllusionPsychoPy\Pics\12start.png,C:\Users\hesselmann\Desktop\PsychoPyUniformityIllusion\UniformityIllusionPsychoPy\Pics\12a.png,None,,,,,0,16,16,16,,,,,,,,,,,,,,,,,,,,,,,,,,,,,,34.00485744000025,None,None,34.00485744000025,None,34.00485744000025,None,34.00485744000025,None,,,001,2021_Jul_14_1444,UniformityIllusion,2021.1.4,60.98274919990995,
C:\Users\hesselmann\Desktop\PsychoPyUniformityIllusion\UniformityIllusionPsychoPy\Pics\12start.png,C:\Users\hesselmann\Desktop\PsychoPyUniformityIllusion\UniformityIllusionPsychoPy\Pics\12b.png,None,,,,,0,17,17,17,,,,,,,,,,,,,,,,,,,,,,,,,,,,,,34.20251088000032,None,None,34.20251088000032,None,34.20251088000032,None,34.20251088000032,None,,,001,2021_Jul_14_1444,UniformityIllusion,2021.1.4,60.98274919990995,
C:\Users\hesselmann\Desktop\PsychoPyUniformityIllusion\UniformityIllusionPsychoPy\Pics\13start.png,C:\Users\hesselmann\Desktop\PsychoPyUniformityIllusion\UniformityIllusionPsychoPy\Pics\13a.png,None,,,,,0,18,18,18,,,,,,,,,,,,,,,,,,,,,,,,,,,,,,34.626948099999936,None,space,34.626948099999936,None,34.626948099999936,None,34.626948099999936,None,0.5216801000001396,,001,2021_Jul_14_1444,UniformityIllusion,2021.1.4,60.98274919990995,
C:\Users\hesselmann\Desktop\PsychoPyUniformityIllusion\UniformityIllusionPsychoPy\Pics\13start.png,C:\Users\hesselmann\Desktop\PsychoPyUniformityIllusion\UniformityIllusionPsychoPy\Pics\13b.png,None,,,,,0,19,19,19,,,,,,,,,,,,,,,,,,,,,,,,,,,,,,35.57687459999988,None,space,35.57687459999988,None,35.57687459999988,None,35.57687459999988,None,0.35367279999991297,,001,2021_Jul_14_1444,UniformityIllusion,2021.1.4,60.98274919990995,
C:\Users\hesselmann\Desktop\PsychoPyUniformityIllusion\UniformityIllusionPsychoPy\Pics\14start.png,C:\Users\hesselmann\Desktop\PsychoPyUniformityIllusion\UniformityIllusionPsychoPy\Pics\14a.png,None,,,,,0,20,20,20,,,,,,,,,,,,,,,,,,,,,,,,,,,,,,36.4804067,None,space,36.4804067,None,36.4804067,None,36.4804067,None,0.31433930000002874,,001,2021_Jul_14_1444,UniformityIllusion,2021.1.4,60.98274919990995,
C:\Users\hesselmann\Desktop\PsychoPyUniformityIllusion\UniformityIllusionPsychoPy\Pics\14start.png,C:\Users\hesselmann\Desktop\PsychoPyUniformityIllusion\UniformityIllusionPsychoPy\Pics\14b.png,None,,,,,0,21,21,21,,,,,,,,,,,,,,,,,,,,,,,,,,,,,,37.260182200000145,None,space,37.260182200000145,None,37.260182200000145,None,37.260182200000145,None,0.07068259999959992,,001,2021_Jul_14_1444,UniformityIllusion,2021.1.4,60.98274919990995,
C:\Users\hesselmann\Desktop\PsychoPyUniformityIllusion\UniformityIllusionPsychoPy\Pics\15start.png,C:\Users\hesselmann\Desktop\PsychoPyUniformityIllusion\UniformityIllusionPsychoPy\Pics\15a.png,None,,,,,0,22,22,22,,,,,,,,,,,,,,,,,,,,,,,,,,,,,,37.72684070000014,None,space,37.72684070000014,None,37.72684070000014,None,37.72684070000014,None,0.0438626000000113,,001,2021_Jul_14_1444,UniformityIllusion,2021.1.4,60.98274919990995,
C:\Users\hesselmann\Desktop\PsychoPyUniformityIllusion\UniformityIllusionPsychoPy\Pics\15start.png,C:\Users\hesselmann\Desktop\PsychoPyUniformityIllusion\UniformityIllusionPsychoPy\Pics\15b.png,None,,,,,0,23,23,23,,,,,,,,,,,,,,,,,,,,,,,,,,,,,,38.05823944000031,None,None,38.05823944000031,None,38.05823944000031,None,38.05823944000031,None,,,001,2021_Jul_14_1444,UniformityIllusion,2021.1.4,60.98274919990995,
