startImage,endImage,AB,PracticeTrialsLoop.thisRepN,PracticeTrialsLoop.thisTrialN,PracticeTrialsLoop.thisN,PracticeTrialsLoop.thisIndex,TestTrialsLoop.thisRepN,TestTrialsLoop.thisTrialN,TestTrialsLoop.thisN,TestTrialsLoop.thisIndex,WelcomeText.started,WelcomeText.stopped,DepressionQuestionnaire.index,DepressionQuestionnaire.itemText,DepressionQuestionnaire.type,DepressionQuestionnaire.response,DepressionQuestionnaire.rt,button.started,button.stopped,button.numClicks,button.timesOn,button.timesOff,instructionsText.started,instructionsText.stopped,nextScreen.keys,nextScreen.rt,nextScreen.started,nextScreen.stopped,hasPeriphery.started,hasPeriphery.stopped,key_resp.keys,key_resp.rt,key_resp.started,key_resp.stopped,noPeriphery.started,noPeriphery.stopped,text.started,text.stopped,participant,session,date,expName,psychopyVersion,frameRate,
,,,,,,,,,,,10.439884299994446,None,Sadness,test,choice,None,None,,,,,,,,,,,,,,,,,,,,,,,001,2021_Jul_09_1237,UniformityIllusion,2021.1.4,60.29508413196224,
,,,,,,,,,,,,,,,,,,12.506050800002413,None,1,[1.4341895999968983],[1.4341968999942765],13.889948399999412,None,space,5.235023799992632,13.889948399999412,None,,,,,,,,,,,,001,2021_Jul_09_1237,UniformityIllusion,2021.1.4,60.29508413196224,
C:\Users\hesselmann\Desktop\PsychoPyUniformityIllusion\UniformityIllusionPsychoPy\stimuli\2start.png,C:\Users\hesselmann\Desktop\PsychoPyUniformityIllusion\UniformityIllusionPsychoPy\stimuli\2a.png,a,0,0,0,0,,,,,,,,,,,,,,,,,,,,,,,19.33845080001629,None,space,2.1545890999841504,19.33845080001629,None,19.33845080001629,None,19.33845080001629,None,,001,2021_Jul_09_1237,UniformityIllusion,2021.1.4,60.29508413196224,
C:\Users\hesselmann\Desktop\PsychoPyUniformityIllusion\UniformityIllusionPsychoPy\stimuli\2start.png,C:\Users\hesselmann\Desktop\PsychoPyUniformityIllusion\UniformityIllusionPsychoPy\stimuli\2b.png,b,0,1,1,1,,,,,,,,,,,,,,,,,,,,,,,21.80420410001534,None,space,1.529197000025306,21.80420410001534,None,21.80420410001534,None,21.80420410001534,None,,001,2021_Jul_09_1237,UniformityIllusion,2021.1.4,60.29508413196224,
C:\Users\hesselmann\Desktop\PsychoPyUniformityIllusion\UniformityIllusionPsychoPy\stimuli\3start.png,C:\Users\hesselmann\Desktop\PsychoPyUniformityIllusion\UniformityIllusionPsychoPy\stimuli\3a.png,a,0,2,2,2,,,,,,,,,,,,,,,,,,,,,,,23.604993200016906,None,space,1.5761532000033185,23.604993200016906,None,23.604993200016906,None,23.604993200016906,None,,001,2021_Jul_09_1237,UniformityIllusion,2021.1.4,60.29508413196224,
C:\Users\hesselmann\Desktop\PsychoPyUniformityIllusion\UniformityIllusionPsychoPy\stimuli\3start.png,C:\Users\hesselmann\Desktop\PsychoPyUniformityIllusion\UniformityIllusionPsychoPy\stimuli\3b.png,b,0,3,3,3,,,,,,,,,,,,,,,,,,,,,,,25.454435199993895,None,space,2.1509184999740683,25.454435199993895,None,25.454435199993895,None,25.454435199993895,None,,001,2021_Jul_09_1237,UniformityIllusion,2021.1.4,60.29508413196224,
C:\Users\hesselmann\Desktop\PsychoPyUniformityIllusion\UniformityIllusionPsychoPy\stimuli\2start.png,C:\Users\hesselmann\Desktop\PsychoPyUniformityIllusion\UniformityIllusionPsychoPy\stimuli\2b.png,b,1,0,4,1,,,,,,,,,,,,,,,,,,,,,,,27.936846800002968,None,space,1.733196399989538,27.936846800002968,None,27.936846800002968,None,27.936846800002968,None,,001,2021_Jul_09_1237,UniformityIllusion,2021.1.4,60.29508413196224,
C:\Users\hesselmann\Desktop\PsychoPyUniformityIllusion\UniformityIllusionPsychoPy\stimuli\3start.png,C:\Users\hesselmann\Desktop\PsychoPyUniformityIllusion\UniformityIllusionPsychoPy\stimuli\3b.png,b,1,1,5,3,,,,,,,,,,,,,,,,,,,,,,,29.95311210001819,None,space,1.8449184999917634,29.95311210001819,None,29.95311210001819,None,29.95311210001819,None,,001,2021_Jul_09_1237,UniformityIllusion,2021.1.4,60.29508413196224,
C:\Users\hesselmann\Desktop\PsychoPyUniformityIllusion\UniformityIllusionPsychoPy\stimuli\3start.png,C:\Users\hesselmann\Desktop\PsychoPyUniformityIllusion\UniformityIllusionPsychoPy\stimuli\3a.png,a,1,2,6,2,,,,,,,,,,,,,,,,,,,,,,,32.06915590001154,None,space,1.8569655000173952,32.06915590001154,None,32.06915590001154,None,32.06915590001154,None,,001,2021_Jul_09_1237,UniformityIllusion,2021.1.4,60.29508413196224,
C:\Users\hesselmann\Desktop\PsychoPyUniformityIllusion\UniformityIllusionPsychoPy\stimuli\2start.png,C:\Users\hesselmann\Desktop\PsychoPyUniformityIllusion\UniformityIllusionPsychoPy\stimuli\2a.png,a,1,3,7,0,,,,,,,,,,,,,,,,,,,,,,,34.23562240001047,None,space,1.6030702000134625,34.23562240001047,None,34.23562240001047,None,34.23562240001047,None,,001,2021_Jul_09_1237,UniformityIllusion,2021.1.4,60.29508413196224,
C:\Users\hesselmann\Desktop\PsychoPyUniformityIllusion\UniformityIllusionPsychoPy\stimuli\3start.png,C:\Users\hesselmann\Desktop\PsychoPyUniformityIllusion\UniformityIllusionPsychoPy\stimuli\3b.png,b,2,0,8,3,,,,,,,,,,,,,,,,,,,,,,,36.18549840000924,None,space,0.4131100999948103,36.18549840000924,None,36.18549840000924,None,36.18549840000924,None,,001,2021_Jul_09_1237,UniformityIllusion,2021.1.4,60.29508413196224,
C:\Users\hesselmann\Desktop\PsychoPyUniformityIllusion\UniformityIllusionPsychoPy\stimuli\2start.png,C:\Users\hesselmann\Desktop\PsychoPyUniformityIllusion\UniformityIllusionPsychoPy\stimuli\2a.png,a,2,1,9,0,,,,,,,,,,,,,,,,,,,,,,,36.868243900011294,None,space,0.5061249999853317,36.868243900011294,None,36.868243900011294,None,36.868243900011294,None,,001,2021_Jul_09_1237,UniformityIllusion,2021.1.4,60.29508413196224,
C:\Users\hesselmann\Desktop\PsychoPyUniformityIllusion\UniformityIllusionPsychoPy\stimuli\2start.png,C:\Users\hesselmann\Desktop\PsychoPyUniformityIllusion\UniformityIllusionPsychoPy\stimuli\2b.png,b,2,2,10,1,,,,,,,,,,,,,,,,,,,,,,,37.60152080000262,None,space,0.36503210000228137,37.60152080000262,None,37.60152080000262,None,37.60152080000262,None,,001,2021_Jul_09_1237,UniformityIllusion,2021.1.4,60.29508413196224,
C:\Users\hesselmann\Desktop\PsychoPyUniformityIllusion\UniformityIllusionPsychoPy\stimuli\3start.png,C:\Users\hesselmann\Desktop\PsychoPyUniformityIllusion\UniformityIllusionPsychoPy\stimuli\3a.png,a,2,3,11,2,,,,,,,,,,,,,,,,,,,,,,,38.2021614999976,None,space,0.332845199998701,38.2021614999976,None,38.2021614999976,None,38.2021614999976,None,,001,2021_Jul_09_1237,UniformityIllusion,2021.1.4,60.29508413196224,
C:\Users\hesselmann\Desktop\PsychoPyUniformityIllusion\UniformityIllusionPsychoPy\stimuli\2start.png,C:\Users\hesselmann\Desktop\PsychoPyUniformityIllusion\UniformityIllusionPsychoPy\stimuli\2a.png,a,3,0,12,0,,,,,,,,,,,,,,,,,,,,,,,38.818730300001334,None,space,0.22799849999137223,38.818730300001334,None,38.818730300001334,None,38.818730300001334,None,,001,2021_Jul_09_1237,UniformityIllusion,2021.1.4,60.29508413196224,
C:\Users\hesselmann\Desktop\PsychoPyUniformityIllusion\UniformityIllusionPsychoPy\stimuli\3start.png,C:\Users\hesselmann\Desktop\PsychoPyUniformityIllusion\UniformityIllusionPsychoPy\stimuli\3a.png,a,3,1,13,2,,,,,,,,,,,,,,,,,,,,,,,39.31855120000546,None,space,0.26441849998082034,39.31855120000546,None,39.31855120000546,None,39.31855120000546,None,,001,2021_Jul_09_1237,UniformityIllusion,2021.1.4,60.29508413196224,
C:\Users\hesselmann\Desktop\PsychoPyUniformityIllusion\UniformityIllusionPsychoPy\stimuli\3start.png,C:\Users\hesselmann\Desktop\PsychoPyUniformityIllusion\UniformityIllusionPsychoPy\stimuli\3b.png,b,3,2,14,3,,,,,,,,,,,,,,,,,,,,,,,39.81808970001293,None,space,0.19639979998464696,39.81808970001293,None,39.81808970001293,None,39.81808970001293,None,,001,2021_Jul_09_1237,UniformityIllusion,2021.1.4,60.29508413196224,
C:\Users\hesselmann\Desktop\PsychoPyUniformityIllusion\UniformityIllusionPsychoPy\stimuli\2start.png,C:\Users\hesselmann\Desktop\PsychoPyUniformityIllusion\UniformityIllusionPsychoPy\stimuli\2b.png,b,3,3,15,1,,,,,,,,,,,,,,,,,,,,,,,40.3014603999909,None,space,0.17723669999395497,40.3014603999909,None,40.3014603999909,None,40.3014603999909,None,,001,2021_Jul_09_1237,UniformityIllusion,2021.1.4,60.29508413196224,
C:\Users\hesselmann\Desktop\PsychoPyUniformityIllusion\UniformityIllusionPsychoPy\stimuli\2start.png,C:\Users\hesselmann\Desktop\PsychoPyUniformityIllusion\UniformityIllusionPsychoPy\stimuli\2b.png,b,4,0,16,1,,,,,,,,,,,,,,,,,,,,,,,40.76784179999959,None,space,0.17567320002126507,40.76784179999959,None,40.76784179999959,None,40.76784179999959,None,,001,2021_Jul_09_1237,UniformityIllusion,2021.1.4,60.29508413196224,
C:\Users\hesselmann\Desktop\PsychoPyUniformityIllusion\UniformityIllusionPsychoPy\stimuli\2start.png,C:\Users\hesselmann\Desktop\PsychoPyUniformityIllusion\UniformityIllusionPsychoPy\stimuli\2a.png,a,4,1,17,0,,,,,,,,,,,,,,,,,,,,,,,41.25136100000236,None,space,0.15645879998919554,41.25136100000236,None,41.25136100000236,None,41.25136100000236,None,,001,2021_Jul_09_1237,UniformityIllusion,2021.1.4,60.29508413196224,
C:\Users\hesselmann\Desktop\PsychoPyUniformityIllusion\UniformityIllusionPsychoPy\stimuli\3start.png,C:\Users\hesselmann\Desktop\PsychoPyUniformityIllusion\UniformityIllusionPsychoPy\stimuli\3b.png,b,4,2,18,3,,,,,,,,,,,,,,,,,,,,,,,41.750783800001955,None,space,0.048089100018842146,41.750783800001955,None,41.750783800001955,None,41.750783800001955,None,,001,2021_Jul_09_1237,UniformityIllusion,2021.1.4,60.29508413196224,
C:\Users\hesselmann\Desktop\PsychoPyUniformityIllusion\UniformityIllusionPsychoPy\stimuli\3start.png,C:\Users\hesselmann\Desktop\PsychoPyUniformityIllusion\UniformityIllusionPsychoPy\stimuli\3a.png,a,4,3,19,2,,,,,,,,,,,,,,,,,,,,,,,42.15066489999299,None,space,0.06466340000042692,42.15066489999299,None,42.15066489999299,None,42.15066489999299,None,,001,2021_Jul_09_1237,UniformityIllusion,2021.1.4,60.29508413196224,
C:\Users\hesselmann\Desktop\PsychoPyUniformityIllusion\UniformityIllusionPsychoPy\stimuli\2start.png,C:\Users\hesselmann\Desktop\PsychoPyUniformityIllusion\UniformityIllusionPsychoPy\stimuli\2b.png,b,,,,,0,0,0,3,,,,,,,,,,,,,,,,,,,,,,,,,,,,,,001,2021_Jul_09_1237,UniformityIllusion,2021.1.4,60.29508413196224,
C:\Users\hesselmann\Desktop\PsychoPyUniformityIllusion\UniformityIllusionPsychoPy\stimuli\2start.png,C:\Users\hesselmann\Desktop\PsychoPyUniformityIllusion\UniformityIllusionPsychoPy\stimuli\2a.png,a,,,,,0,1,1,2,,,,,,,,,,,,,,,,,,,,,,,,,,,,,,001,2021_Jul_09_1237,UniformityIllusion,2021.1.4,60.29508413196224,
C:\Users\hesselmann\Desktop\PsychoPyUniformityIllusion\UniformityIllusionPsychoPy\stimuli\1start.png,C:\Users\hesselmann\Desktop\PsychoPyUniformityIllusion\UniformityIllusionPsychoPy\stimuli\1a.png,a,,,,,0,2,2,0,,,,,,,,,,,,,,,,,,,,,,,,,,,,,,001,2021_Jul_09_1237,UniformityIllusion,2021.1.4,60.29508413196224,
C:\Users\hesselmann\Desktop\PsychoPyUniformityIllusion\UniformityIllusionPsychoPy\stimuli\3start.png,C:\Users\hesselmann\Desktop\PsychoPyUniformityIllusion\UniformityIllusionPsychoPy\stimuli\3a.png,a,,,,,0,3,3,4,,,,,,,,,,,,,,,,,,,,,,,,,,,,,,001,2021_Jul_09_1237,UniformityIllusion,2021.1.4,60.29508413196224,
C:\Users\hesselmann\Desktop\PsychoPyUniformityIllusion\UniformityIllusionPsychoPy\stimuli\3start.png,C:\Users\hesselmann\Desktop\PsychoPyUniformityIllusion\UniformityIllusionPsychoPy\stimuli\3b.png,b,,,,,0,4,4,5,,,,,,,,,,,,,,,,,,,,,,,,,,,,,,001,2021_Jul_09_1237,UniformityIllusion,2021.1.4,60.29508413196224,
C:\Users\hesselmann\Desktop\PsychoPyUniformityIllusion\UniformityIllusionPsychoPy\stimuli\1start.png,C:\Users\hesselmann\Desktop\PsychoPyUniformityIllusion\UniformityIllusionPsychoPy\stimuli\1b.png,b,,,,,0,5,5,1,,,,,,,,,,,,,,,,,,,,,,,,,,,,,,001,2021_Jul_09_1237,UniformityIllusion,2021.1.4,60.29508413196224,
C:\Users\hesselmann\Desktop\PsychoPyUniformityIllusion\UniformityIllusionPsychoPy\stimuli\2start.png,C:\Users\hesselmann\Desktop\PsychoPyUniformityIllusion\UniformityIllusionPsychoPy\stimuli\2a.png,a,,,,,1,0,6,2,,,,,,,,,,,,,,,,,,,,,,,,,,,,,,001,2021_Jul_09_1237,UniformityIllusion,2021.1.4,60.29508413196224,
C:\Users\hesselmann\Desktop\PsychoPyUniformityIllusion\UniformityIllusionPsychoPy\stimuli\3start.png,C:\Users\hesselmann\Desktop\PsychoPyUniformityIllusion\UniformityIllusionPsychoPy\stimuli\3b.png,b,,,,,1,1,7,5,,,,,,,,,,,,,,,,,,,,,,,,,,,,,,001,2021_Jul_09_1237,UniformityIllusion,2021.1.4,60.29508413196224,
C:\Users\hesselmann\Desktop\PsychoPyUniformityIllusion\UniformityIllusionPsychoPy\stimuli\3start.png,C:\Users\hesselmann\Desktop\PsychoPyUniformityIllusion\UniformityIllusionPsychoPy\stimuli\3a.png,a,,,,,1,2,8,4,,,,,,,,,,,,,,,,,,,,,,,,,,,,,,001,2021_Jul_09_1237,UniformityIllusion,2021.1.4,60.29508413196224,
C:\Users\hesselmann\Desktop\PsychoPyUniformityIllusion\UniformityIllusionPsychoPy\stimuli\2start.png,C:\Users\hesselmann\Desktop\PsychoPyUniformityIllusion\UniformityIllusionPsychoPy\stimuli\2b.png,b,,,,,1,3,9,3,,,,,,,,,,,,,,,,,,,,,,,,,,,,,,001,2021_Jul_09_1237,UniformityIllusion,2021.1.4,60.29508413196224,
C:\Users\hesselmann\Desktop\PsychoPyUniformityIllusion\UniformityIllusionPsychoPy\stimuli\1start.png,C:\Users\hesselmann\Desktop\PsychoPyUniformityIllusion\UniformityIllusionPsychoPy\stimuli\1a.png,a,,,,,1,4,10,0,,,,,,,,,,,,,,,,,,,,,,,,,,,,,,001,2021_Jul_09_1237,UniformityIllusion,2021.1.4,60.29508413196224,
C:\Users\hesselmann\Desktop\PsychoPyUniformityIllusion\UniformityIllusionPsychoPy\stimuli\1start.png,C:\Users\hesselmann\Desktop\PsychoPyUniformityIllusion\UniformityIllusionPsychoPy\stimuli\1b.png,b,,,,,1,5,11,1,,,,,,,,,,,,,,,,,,,,,,,,,,,,,,001,2021_Jul_09_1237,UniformityIllusion,2021.1.4,60.29508413196224,
C:\Users\hesselmann\Desktop\PsychoPyUniformityIllusion\UniformityIllusionPsychoPy\stimuli\1start.png,C:\Users\hesselmann\Desktop\PsychoPyUniformityIllusion\UniformityIllusionPsychoPy\stimuli\1a.png,a,,,,,2,0,12,0,,,,,,,,,,,,,,,,,,,,,,,,,,,,,,001,2021_Jul_09_1237,UniformityIllusion,2021.1.4,60.29508413196224,
C:\Users\hesselmann\Desktop\PsychoPyUniformityIllusion\UniformityIllusionPsychoPy\stimuli\3start.png,C:\Users\hesselmann\Desktop\PsychoPyUniformityIllusion\UniformityIllusionPsychoPy\stimuli\3b.png,b,,,,,2,1,13,5,,,,,,,,,,,,,,,,,,,,,,,,,,,,,,001,2021_Jul_09_1237,UniformityIllusion,2021.1.4,60.29508413196224,
C:\Users\hesselmann\Desktop\PsychoPyUniformityIllusion\UniformityIllusionPsychoPy\stimuli\3start.png,C:\Users\hesselmann\Desktop\PsychoPyUniformityIllusion\UniformityIllusionPsychoPy\stimuli\3a.png,a,,,,,2,2,14,4,,,,,,,,,,,,,,,,,,,,,,,,,,,,,,001,2021_Jul_09_1237,UniformityIllusion,2021.1.4,60.29508413196224,
C:\Users\hesselmann\Desktop\PsychoPyUniformityIllusion\UniformityIllusionPsychoPy\stimuli\1start.png,C:\Users\hesselmann\Desktop\PsychoPyUniformityIllusion\UniformityIllusionPsychoPy\stimuli\1b.png,b,,,,,2,3,15,1,,,,,,,,,,,,,,,,,,,,,,,,,,,,,,001,2021_Jul_09_1237,UniformityIllusion,2021.1.4,60.29508413196224,
C:\Users\hesselmann\Desktop\PsychoPyUniformityIllusion\UniformityIllusionPsychoPy\stimuli\2start.png,C:\Users\hesselmann\Desktop\PsychoPyUniformityIllusion\UniformityIllusionPsychoPy\stimuli\2a.png,a,,,,,2,4,16,2,,,,,,,,,,,,,,,,,,,,,,,,,,,,,,001,2021_Jul_09_1237,UniformityIllusion,2021.1.4,60.29508413196224,
C:\Users\hesselmann\Desktop\PsychoPyUniformityIllusion\UniformityIllusionPsychoPy\stimuli\2start.png,C:\Users\hesselmann\Desktop\PsychoPyUniformityIllusion\UniformityIllusionPsychoPy\stimuli\2b.png,b,,,,,2,5,17,3,,,,,,,,,,,,,,,,,,,,,,,,,,,,,,001,2021_Jul_09_1237,UniformityIllusion,2021.1.4,60.29508413196224,
C:\Users\hesselmann\Desktop\PsychoPyUniformityIllusion\UniformityIllusionPsychoPy\stimuli\2start.png,C:\Users\hesselmann\Desktop\PsychoPyUniformityIllusion\UniformityIllusionPsychoPy\stimuli\2a.png,a,,,,,3,0,18,2,,,,,,,,,,,,,,,,,,,,,,,,,,,,,,001,2021_Jul_09_1237,UniformityIllusion,2021.1.4,60.29508413196224,
C:\Users\hesselmann\Desktop\PsychoPyUniformityIllusion\UniformityIllusionPsychoPy\stimuli\3start.png,C:\Users\hesselmann\Desktop\PsychoPyUniformityIllusion\UniformityIllusionPsychoPy\stimuli\3b.png,b,,,,,3,1,19,5,,,,,,,,,,,,,,,,,,,,,,,,,,,,,,001,2021_Jul_09_1237,UniformityIllusion,2021.1.4,60.29508413196224,
C:\Users\hesselmann\Desktop\PsychoPyUniformityIllusion\UniformityIllusionPsychoPy\stimuli\2start.png,C:\Users\hesselmann\Desktop\PsychoPyUniformityIllusion\UniformityIllusionPsychoPy\stimuli\2b.png,b,,,,,3,2,20,3,,,,,,,,,,,,,,,,,,,,,,,,,,,,,,001,2021_Jul_09_1237,UniformityIllusion,2021.1.4,60.29508413196224,
C:\Users\hesselmann\Desktop\PsychoPyUniformityIllusion\UniformityIllusionPsychoPy\stimuli\1start.png,C:\Users\hesselmann\Desktop\PsychoPyUniformityIllusion\UniformityIllusionPsychoPy\stimuli\1b.png,b,,,,,3,3,21,1,,,,,,,,,,,,,,,,,,,,,,,,,,,,,,001,2021_Jul_09_1237,UniformityIllusion,2021.1.4,60.29508413196224,
C:\Users\hesselmann\Desktop\PsychoPyUniformityIllusion\UniformityIllusionPsychoPy\stimuli\3start.png,C:\Users\hesselmann\Desktop\PsychoPyUniformityIllusion\UniformityIllusionPsychoPy\stimuli\3a.png,a,,,,,3,4,22,4,,,,,,,,,,,,,,,,,,,,,,,,,,,,,,001,2021_Jul_09_1237,UniformityIllusion,2021.1.4,60.29508413196224,
C:\Users\hesselmann\Desktop\PsychoPyUniformityIllusion\UniformityIllusionPsychoPy\stimuli\1start.png,C:\Users\hesselmann\Desktop\PsychoPyUniformityIllusion\UniformityIllusionPsychoPy\stimuli\1a.png,a,,,,,3,5,23,0,,,,,,,,,,,,,,,,,,,,,,,,,,,,,,001,2021_Jul_09_1237,UniformityIllusion,2021.1.4,60.29508413196224,
C:\Users\hesselmann\Desktop\PsychoPyUniformityIllusion\UniformityIllusionPsychoPy\stimuli\1start.png,C:\Users\hesselmann\Desktop\PsychoPyUniformityIllusion\UniformityIllusionPsychoPy\stimuli\1b.png,b,,,,,4,0,24,1,,,,,,,,,,,,,,,,,,,,,,,,,,,,,,001,2021_Jul_09_1237,UniformityIllusion,2021.1.4,60.29508413196224,
C:\Users\hesselmann\Desktop\PsychoPyUniformityIllusion\UniformityIllusionPsychoPy\stimuli\1start.png,C:\Users\hesselmann\Desktop\PsychoPyUniformityIllusion\UniformityIllusionPsychoPy\stimuli\1a.png,a,,,,,4,1,25,0,,,,,,,,,,,,,,,,,,,,,,,,,,,,,,001,2021_Jul_09_1237,UniformityIllusion,2021.1.4,60.29508413196224,
C:\Users\hesselmann\Desktop\PsychoPyUniformityIllusion\UniformityIllusionPsychoPy\stimuli\2start.png,C:\Users\hesselmann\Desktop\PsychoPyUniformityIllusion\UniformityIllusionPsychoPy\stimuli\2a.png,a,,,,,4,2,26,2,,,,,,,,,,,,,,,,,,,,,,,,,,,,,,001,2021_Jul_09_1237,UniformityIllusion,2021.1.4,60.29508413196224,
C:\Users\hesselmann\Desktop\PsychoPyUniformityIllusion\UniformityIllusionPsychoPy\stimuli\3start.png,C:\Users\hesselmann\Desktop\PsychoPyUniformityIllusion\UniformityIllusionPsychoPy\stimuli\3b.png,b,,,,,4,3,27,5,,,,,,,,,,,,,,,,,,,,,,,,,,,,,,001,2021_Jul_09_1237,UniformityIllusion,2021.1.4,60.29508413196224,
C:\Users\hesselmann\Desktop\PsychoPyUniformityIllusion\UniformityIllusionPsychoPy\stimuli\3start.png,C:\Users\hesselmann\Desktop\PsychoPyUniformityIllusion\UniformityIllusionPsychoPy\stimuli\3a.png,a,,,,,4,4,28,4,,,,,,,,,,,,,,,,,,,,,,,,,,,,,,001,2021_Jul_09_1237,UniformityIllusion,2021.1.4,60.29508413196224,
C:\Users\hesselmann\Desktop\PsychoPyUniformityIllusion\UniformityIllusionPsychoPy\stimuli\2start.png,C:\Users\hesselmann\Desktop\PsychoPyUniformityIllusion\UniformityIllusionPsychoPy\stimuli\2b.png,b,,,,,4,5,29,3,,,,,,,,,,,,,,,,,,,,,,,,,,,,,,001,2021_Jul_09_1237,UniformityIllusion,2021.1.4,60.29508413196224,
